onset	duration	trial_type	trial_index	cue	stimulusintensity	rating_value	rating_glmslabel	rating_value_fillna	rating_glmslabel_fillna	rating_mouseonset	rating_mousedur	stim_file
10.58	0.99	cue	1	low_cue	n/a	n/a	n/a	n/a	n/a	n/a	n/a	l009.png
35.69	0.98	cue	2	low_cue	n/a	n/a	n/a	n/a	n/a	n/a	n/a	l046.png
61.28	0.99	cue	3	low_cue	n/a	n/a	n/a	n/a	n/a	n/a	n/a	l033.png
91.27	1.0	cue	4	low_cue	n/a	n/a	n/a	n/a	n/a	n/a	n/a	l027.png
119.98	0.99	cue	5	high_cue	n/a	n/a	n/a	n/a	n/a	n/a	n/a	h051.png
153.88	0.99	cue	6	high_cue	n/a	n/a	n/a	n/a	n/a	n/a	n/a	h045.png
194.18	0.99	cue	7	high_cue	n/a	n/a	n/a	n/a	n/a	n/a	n/a	h041.png
219.19	0.98	cue	8	high_cue	n/a	n/a	n/a	n/a	n/a	n/a	n/a	h014.png
251.38	0.99	cue	9	high_cue	n/a	n/a	n/a	n/a	n/a	n/a	n/a	h043.png
285.78	0.99	cue	10	high_cue	n/a	n/a	n/a	n/a	n/a	n/a	n/a	h013.png
326.18	0.99	cue	11	low_cue	n/a	n/a	n/a	n/a	n/a	n/a	n/a	l040.png
366.38	0.99	cue	12	low_cue	n/a	n/a	n/a	n/a	n/a	n/a	n/a	l051.png
12.29	2.47	expectrating	1	low_cue	n/a	36.03	Strong	36.03	Strong	0.75	1.72	l009.png
37.99	2.0	expectrating	2	low_cue	n/a	33.5	Strong	33.5	Strong	0.65	1.35	l046.png
64.18	3.28	expectrating	3	low_cue	n/a	13.7	Moderate	13.7	Moderate	0.95	2.33	l033.png
93.69	2.97	expectrating	4	low_cue	n/a	14.37	Moderate	14.37	Moderate	0.75	2.22	l027.png
122.88	2.77	expectrating	5	high_cue	n/a	58.04	Strong	58.04	Strong	0.7	2.07	h051.png
155.78	3.5	expectrating	6	high_cue	n/a	67.56	Very Strong	67.56	Very Strong	1.38	2.12	h045.png
196.98	1.68	expectrating	7	high_cue	n/a	59.12	Strong	59.12	Strong	0.15	1.53	h041.png
222.09	3.17	expectrating	8	high_cue	n/a	20.25	Moderate	20.25	Moderate	1.48	1.69	h014.png
253.78	2.51	expectrating	9	high_cue	n/a	43.86	Strong	43.86	Strong	0.67	1.84	h043.png
288.98	2.93	expectrating	10	high_cue	n/a	55.8	Strong	55.8	Strong	0.82	2.12	h013.png
328.08	1.3	expectrating	11	low_cue	n/a	31.76	Strong	31.76	Strong	0.45	0.85	l040.png
369.18	2.6	expectrating	12	low_cue	n/a	20.0	Moderate	20.0	Moderate	0.75	1.85	l051.png
23.07	7.01	stimulus	1	low_cue	low_stim	n/a	n/a	n/a	n/a	n/a	n/a	jl047t1aaunaff_L.mp4
45.77	7.0	stimulus	2	low_cue	med_stim	n/a	n/a	n/a	n/a	n/a	n/a	bn080t1aeaff_M.mp4
74.17	7.01	stimulus	3	low_cue	low_stim	n/a	n/a	n/a	n/a	n/a	n/a	jh043t2aaunaff_L.mp4
101.77	7.01	stimulus	4	low_cue	high_stim	n/a	n/a	n/a	n/a	n/a	n/a	mg066t1aaaff_H.mp4
133.78	7.0	stimulus	5	high_cue	med_stim	n/a	n/a	n/a	n/a	n/a	n/a	ib109t1afaff_M.mp4
169.77	7.0	stimulus	6	high_cue	high_stim	n/a	n/a	n/a	n/a	n/a	n/a	jh043t2aeaff_H.mp4
206.17	7.01	stimulus	7	high_cue	med_stim	n/a	n/a	n/a	n/a	n/a	n/a	vw121t1aiaff_M.mp4
234.47	7.01	stimulus	8	high_cue	low_stim	n/a	n/a	n/a	n/a	n/a	n/a	bg096t2afunaff_L.mp4
266.67	7.0	stimulus	9	high_cue	low_stim	n/a	n/a	n/a	n/a	n/a	n/a	bn080t1afunaff_L.mp4
297.97	7.01	stimulus	10	high_cue	high_stim	n/a	n/a	n/a	n/a	n/a	n/a	bn080t1afaff_H.mp4
342.37	7.02	stimulus	11	low_cue	med_stim	n/a	n/a	n/a	n/a	n/a	n/a	mg066t2aaunaff_M.mp4
375.77	7.01	stimulus	12	low_cue	high_stim	n/a	n/a	n/a	n/a	n/a	n/a	ib109t1aiaff_H.mp4
31.08	3.26	outcomerating	1	low_cue	low_stim	18.94	Moderate	18.94	Moderate	0.82	2.44	task-vicarious_scale.png
56.29	2.83	outcomerating	2	low_cue	med_stim	15.72	Moderate	15.72	Moderate	0.78	2.05	task-vicarious_scale.png
86.29	3.25	outcomerating	3	low_cue	low_stim	10.76	Moderate	10.76	Moderate	1.52	1.74	task-vicarious_scale.png
112.3	2.46	outcomerating	4	low_cue	high_stim	23.26	Moderate	23.26	Moderate	0.88	1.58	task-vicarious_scale.png
142.79	3.15	outcomerating	5	high_cue	med_stim	12.03	Moderate	12.03	Moderate	0.42	2.73	task-vicarious_scale.png
184.19	2.28	outcomerating	6	high_cue	high_stim	50.69	Strong	50.69	Strong	0.8	1.48	task-vicarious_scale.png
214.19	3.17	outcomerating	7	high_cue	med_stim	12.4	Moderate	12.4	Moderate	1.12	2.05	task-vicarious_scale.png
242.7	3.0	outcomerating	8	high_cue	low_stim	72.73	Very Strong	72.73	Very Strong	0.3	2.7	task-vicarious_scale.png
280.79		outcomerating	9	high_cue	low_stim			45.66	Strong	1.17	1.7	task-vicarious_scale.png
311.29	2.64	outcomerating	10	high_cue	high_stim	83.56	Very Strong	83.56	Very Strong	0.5	2.14	task-vicarious_scale.png
353.29	2.89	outcomerating	11	low_cue	med_stim	8.59	Weak	8.59	Weak	0.98	1.9	task-vicarious_scale.png
394.79	2.44	outcomerating	12	low_cue	high_stim	21.42	Moderate	21.42	Moderate	0.47	1.97	task-vicarious_scale.png
