onset	duration	trial_type	trial_index	cue	stimulusintensity	rating_value	rating_glmslabel	rating_value_fillna	rating_glmslabel_fillna	rating_mouseonset	rating_mousedur	stim_file	onset_ttl1	onset_ttl2	onset_ttl3	onset_ttl4	stimulus_delivery_success
11.01	0.98	cue	1	low_cue	n/a	n/a	n/a	n/a	n/a	n/a	n/a	l032.png	n/a	n/a	n/a	n/a	n/a
51.5	0.98	cue	2	low_cue	n/a	n/a	n/a	n/a	n/a	n/a	n/a	l044.png	n/a	n/a	n/a	n/a	n/a
83.0	1.0	cue	3	high_cue	n/a	n/a	n/a	n/a	n/a	n/a	n/a	h001.png	n/a	n/a	n/a	n/a	n/a
117.2	1.0	cue	4	high_cue	n/a	n/a	n/a	n/a	n/a	n/a	n/a	h036.png	n/a	n/a	n/a	n/a	n/a
150.49	1.0	cue	5	high_cue	n/a	n/a	n/a	n/a	n/a	n/a	n/a	h031.png	n/a	n/a	n/a	n/a	n/a
185.1	1.0	cue	6	low_cue	n/a	n/a	n/a	n/a	n/a	n/a	n/a	l053.png	n/a	n/a	n/a	n/a	n/a
213.2	1.0	cue	7	low_cue	n/a	n/a	n/a	n/a	n/a	n/a	n/a	l026.png	n/a	n/a	n/a	n/a	n/a
244.29	1.0	cue	8	high_cue	n/a	n/a	n/a	n/a	n/a	n/a	n/a	h003.png	n/a	n/a	n/a	n/a	n/a
270.4	1.0	cue	9	high_cue	n/a	n/a	n/a	n/a	n/a	n/a	n/a	h016.png	n/a	n/a	n/a	n/a	n/a
304.1	1.0	cue	10	low_cue	n/a	n/a	n/a	n/a	n/a	n/a	n/a	l005.png	n/a	n/a	n/a	n/a	n/a
338.09	1.0	cue	11	low_cue	n/a	n/a	n/a	n/a	n/a	n/a	n/a	l030.png	n/a	n/a	n/a	n/a	n/a
376.09	1.0	cue	12	high_cue	n/a	n/a	n/a	n/a	n/a	n/a	n/a	h024.png	n/a	n/a	n/a	n/a	n/a
14.31	2.73	expectrating	1	low_cue	n/a	36.87	Strong	36.87	Strong	0.68	2.04	l032.png	n/a	n/a	n/a	n/a	n/a
53.71	2.42	expectrating	2	low_cue	n/a	50.69	Strong	50.69	Strong	0.08	2.33	l044.png	n/a	n/a	n/a	n/a	n/a
85.8	1.97	expectrating	3	high_cue	n/a	96.98	Very Strong	96.98	Very Strong	0.05	1.92	h001.png	n/a	n/a	n/a	n/a	n/a
119.3	1.82	expectrating	4	high_cue	n/a	99.27	Strongest sensation of any kind	99.27	Strongest sensation of any kind	0.25	1.57	h036.png	n/a	n/a	n/a	n/a	n/a
152.71	3.0	expectrating	5	high_cue	n/a	64.05	Very Strong	64.05	Very Strong	1.22	1.78	h031.png	n/a	n/a	n/a	n/a	n/a
187.1	1.95	expectrating	6	low_cue	n/a	53.73	Strong	53.73	Strong	0.43	1.52	l053.png	n/a	n/a	n/a	n/a	n/a
216.5	1.3	expectrating	7	low_cue	n/a	58.88	Strong	58.88	Strong	0.32	0.98	l026.png	n/a	n/a	n/a	n/a	n/a
247.29	1.82	expectrating	8	high_cue	n/a	76.97	Very Strong	76.97	Very Strong	0.07	1.76	h003.png	n/a	n/a	n/a	n/a	n/a
272.4		expectrating	9	high_cue	n/a			78.28	Very Strong	0.6	3.8	h016.png	n/a	n/a	n/a	n/a	n/a
306.3	2.05	expectrating	10	low_cue	n/a	51.23	Strong	51.23	Strong	0.07	1.98	l005.png	n/a	n/a	n/a	n/a	n/a
340.3	1.64	expectrating	11	low_cue	n/a	42.95	Strong	42.95	Strong	0.53	1.11	l030.png	n/a	n/a	n/a	n/a	n/a
378.91	2.25	expectrating	12	high_cue	n/a	130.78	Strongest sensation of any kind	130.78	Strongest sensation of any kind	0.05	2.2	h024.png	n/a	n/a	n/a	n/a	n/a
30.52	42.89	stimulus	1	low_cue	med_stim	n/a	n/a	n/a	n/a	n/a	n/a	49c	30.52	34.28	39.28	42.89	success
60.44	73.27	stimulus	2	low_cue	high_stim	n/a	n/a	n/a	n/a	n/a	n/a	50c	60.44	64.45	69.45	73.26	success
90.55	102.46	stimulus	3	high_cue	low_stim	n/a	n/a	n/a	n/a	n/a	n/a	48c	90.55	94.05	99.05	102.45	success
130.83	143.2	stimulus	4	high_cue	med_stim	n/a	n/a	n/a	n/a	n/a	n/a	49c	130.83	134.59	139.59	143.2	success
168.93	181.75	stimulus	5	high_cue	high_stim	n/a	n/a	n/a	n/a	n/a	n/a	50c	168.93	172.94	177.94	181.75	success
193.64	206.46	stimulus	6	low_cue	high_stim	n/a	n/a	n/a	n/a	n/a	n/a	50c	193.64	197.65	202.65	206.46	success
223.03	234.93	stimulus	7	low_cue	low_stim	n/a	n/a	n/a	n/a	n/a	n/a	48c	223.03	226.53	231.53	234.93	success
252.04	264.86	stimulus	8	high_cue	high_stim	n/a	n/a	n/a	n/a	n/a	n/a	50c	252.04	256.05	261.05	264.86	success
279.72	291.62	stimulus	9	high_cue	low_stim	n/a	n/a	n/a	n/a	n/a	n/a	48c	279.72	283.22	288.22	291.62	success
311.61	323.98	stimulus	10	low_cue	med_stim	n/a	n/a	n/a	n/a	n/a	n/a	49c	311.61	315.37	320.37	323.98	success
350.23	362.13	stimulus	11	low_cue	low_stim	n/a	n/a	n/a	n/a	n/a	n/a	48c	350.23	353.73	358.73	362.13	success
385.41	397.78	stimulus	12	high_cue	med_stim	n/a	n/a	n/a	n/a	n/a	n/a	49c	385.41	389.17	394.17	397.78	success
45.3	1.98	outcomerating	1	low_cue	med_stim	78.96	Very Strong	78.96	Very Strong	0.65	1.33	task-pain_scale.png	n/a	n/a	n/a	n/a	success
75.2	2.34	outcomerating	2	low_cue	high_stim	53.64	Strong	53.64	Strong	0.68	1.65	task-pain_scale.png	n/a	n/a	n/a	n/a	success
100.41	2.55	outcomerating	3	high_cue	low_stim	35.35	Strong	35.35	Strong	0.72	1.83	task-pain_scale.png	n/a	n/a	n/a	n/a	success
145.61	2.4	outcomerating	4	high_cue	med_stim	40.75	Strong	40.75	Strong	0.72	1.68	task-pain_scale.png	n/a	n/a	n/a	n/a	success
179.6	3.38	outcomerating	5	high_cue	high_stim	20.93	Moderate	20.93	Moderate	0.77	2.62	task-pain_scale.png	n/a	n/a	n/a	n/a	success
204.29	2.57	outcomerating	6	low_cue	high_stim	47.28	Strong	47.28	Strong	0.7	1.87	task-pain_scale.png	n/a	n/a	n/a	n/a	success
238.11	3.77	outcomerating	7	low_cue	low_stim	30.41	Strong	30.41	Strong	0.4	3.37	task-pain_scale.png	n/a	n/a	n/a	n/a	success
263.0	2.42	outcomerating	8	high_cue	high_stim	56.44	Strong	56.44	Strong	0.78	1.63	task-pain_scale.png	n/a	n/a	n/a	n/a	success
298.6	2.1	outcomerating	9	high_cue	low_stim	16.83	Moderate	16.83	Moderate	0.63	1.47	task-pain_scale.png	n/a	n/a	n/a	n/a	success
329.81	2.05	outcomerating	10	low_cue	med_stim	44.84	Strong	44.84	Strong	0.47	1.58	task-pain_scale.png	n/a	n/a	n/a	n/a	success
363.9	2.55	outcomerating	11	low_cue	low_stim	6.92	Weak	6.92	Weak	0.83	1.72	task-pain_scale.png	n/a	n/a	n/a	n/a	success
395.0	1.73	outcomerating	12	high_cue	med_stim	48.99	Strong	48.99	Strong	0.67	1.07	task-pain_scale.png	n/a	n/a	n/a	n/a	success
