ISI01_biopac,ISI01_duration,ISI01_onset,ISI02_biopac,ISI02_duration,ISI02_onset,ISI03_biopac,ISI03_duration,ISI03_onset,ITI_biopac,ITI_duration,ITI_onset,delay_between_medoc,event01_cue_biopac,event01_cue_filename,event01_cue_onset,event01_cue_type,event02_expect_RT,event02_expect_angle,event02_expect_angle_label,event02_expect_biopac,event02_expect_displayonset,event02_expect_responseonset,event03_stimulusC_RT,event03_stimulusC_reseponseonset,event03_stimulusC_response,event03_stimulusC_responsekeyname,event03_stimulus_C_stim_filename,event03_stimulus_C_stim_match,event03_stimulus_C_stim_num,event03_stimulus_P_delay_between_medoc,event03_stimulus_P_trigger,event03_stimulus_V_filename,event03_stimulus_V_patientid,event03_stimulus_biopac,event03_stimulus_displayonset,event03_stimulus_type,event04_actual_RT,event04_actual_angle,event04_actual_angle_label,event04_actual_biopac,event04_actual_displayonset,event04_actual_responseonset,param_cond_type,param_counterbalance_block_num,param_counterbalance_ver,param_cue_type,param_end_biopac,param_end_instruct_onset,param_experiment_duration,param_run_num,param_start_biopac,param_stimulus_type,param_task_name,param_trigger_onset,session_id,src_subject_id,trial_no
1616614200.9182599,0.693348407745361,1616614200.91575,1616614205.65306,0.5582497119903559,1616614205.65085,1616614215.22294,5.68801474571228,1616614215.22109,1616614188.4320002,11.382530450820902,1616614188.42776,0.0956220626831055,1616614199.81723,l034.png,1616614199.81534,low_cue,2.5011007785797097,3.46125387795416,FIX,1616614201.6335099,1616614201.63269,1616614204.13379,0,0,0,,,,0,0,Command Recieved: TRIGGER_AND_Response: RESULT_OK,,,1616614206.3131301,1616614206.31166,low_stim,3.8255789279937704,12.303923554059901,FIX,1616614220.9332,1616614220.92321,1616614224.74879,1,2,4,low_cue,1616614584.15013,1616614584.1420002,398.51016306877096,-1,1616614185.63416,low_stim,pain,1616614185.63184,4,10,1
1616614227.23452,1.98353624343872,1616614227.22556,1616614233.2502902,0.5646281242370611,1616614233.24447,1616614242.81724,6.49439167976379,1616614242.81471,1616614225.3174698,0.9021651744842529,1616614225.30818,0.0837318897247314,1616614226.22714,l003.png,1616614226.22519,low_cue,3.08910465240479,40.4519575908746,FIX,1616614229.23306,1616614229.22631,1616614232.31541,0,0,0,,,,0,0,Command Recieved: TRIGGER_AND_Response: RESULT_OK,,,1616614233.89446,1616614233.89368,med_stim,2.4177625179290803,28.3163549432722,FIX,1616614249.3349302,1616614249.3338099,1616614251.75157,2,2,4,low_cue,1616614584.15013,1616614584.1420002,398.51016306877096,-1,1616614185.63416,med_stim,pain,1616614185.63184,4,10,2
1616614258.8227901,1.98842263221741,1616614258.8206801,1616614264.84156,4.86951279640198,1616614264.83959,1616614278.73023,2.78099679946899,1616614278.7281,1616614253.35326,4.45829844474792,1616614253.35197,0.0571868419647217,1616614257.8224301,h040.png,1616614257.8203099,high_cue,1.9009025096893302,53.313889308454506,FIX,1616614260.83332,1616614260.82143,1616614262.72233,0,0,0,,,,0,0,Command Recieved: TRIGGER_AND_Response: RESULT_OK,,,1616614269.76973,1616614269.7674599,med_stim,2.68632006645203,32.029785156997,FIX,1616614281.53296,1616614281.52915,1616614284.2154698,5,2,4,high_cue,1616614584.15013,1616614584.1420002,398.51016306877096,-1,1616614185.63416,med_stim,pain,1616614185.63184,4,10,3
1616614295.6194801,0.8913676738739009,1616614295.6177402,1616614300.5379698,3.3728656768798797,1616614300.53624,1616614312.92659,3.1849122047424303,1616614312.92419,1616614285.56715,9.04628324508667,1616614285.56399,0.047497034072876,1616614294.6192698,l049.png,1616614294.6173599,low_cue,2.08425807952881,14.0945894554091,FIX,1616614296.53279,1616614296.51807,1616614298.60233,0,0,0,,,,0,0,Command Recieved: TRIGGER_AND_Response: RESULT_OK,,,1616614303.9603,1616614303.9586198,high_stim,2.55677390098572,36.6861106915455,FIX,1616614316.1333199,1616614316.12538,1616614318.68216,3,2,4,low_cue,1616614584.15013,1616614584.1420002,398.51016306877096,-1,1616614185.63416,high_stim,pain,1616614185.63184,4,10,4
1616614331.71825,0.694570541381836,1616614331.71453,1616614336.45138,2.4594707489013703,1616614336.44963,1616614347.93499,4.18852996826172,1616614347.92057,1616614320.16324,10.550529003143302,1616614320.16022,0.0849568843841553,1616614330.7351801,h047.png,1616614330.7308302,high_cue,1.95090317726135,48.251945600363904,FIX,1616614332.43289,1616614332.43146,1616614334.38237,0,0,0,,,,0,0,Command Recieved: TRIGGER_AND_Response: RESULT_OK,,,1616614338.9971,1616614338.99521,med_stim,3.9182796478271498,42.722391041665894,FIX,1616614352.13285,1616614352.12214,1616614356.0404198,5,2,4,high_cue,1616614584.15013,1616614584.1420002,398.51016306877096,-1,1616614185.63416,med_stim,pain,1616614185.63184,4,10,5
1616614358.02579,2.08476042747498,1616614358.0243402,1616614364.58372,1.7323160171508798,1616614364.57679,1616614375.33239,4.77830576896667,1616614375.3308,1616614356.61721,0.40277743339538596,1616614356.60715,0.10006403923034697,1616614357.02553,l004.png,1616614357.02397,low_cue,3.9070219993591295,7.5946433685914405,FIX,1616614360.13292,1616614360.12512,1616614364.03215,0,0,0,,,,0,0,Command Recieved: TRIGGER_AND_Response: RESULT_OK,,,1616614366.4117901,1616614366.41013,high_stim,2.36777639389038,44.674459301340704,FIX,1616614380.13348,1616614380.13259,1616614382.50036,3,2,4,low_cue,1616614584.15013,1616614584.1420002,398.51016306877096,-1,1616614185.63416,high_stim,pain,1616614185.63184,4,10,6
1616614386.42015,1.9908373355865498,1616614386.4182599,1616614392.43854,9.371928215026859,1616614392.43717,1616614410.83006,5.88173341751099,1616614410.82737,1616614384.16766,1.25918769836426,1616614384.15075,0.0783369541168213,1616614385.41943,l038.png,1616614385.41789,low_cue,2.58443665504456,23.5899901707433,FIX,1616614388.4335198,1616614388.41901,1616614391.00345,0,0,0,,,,0,0,Command Recieved: TRIGGER_AND_Response: RESULT_OK,,,1616614401.89072,1616614401.88878,low_stim,3.00254940986633,8.06514118072924,FIX,1616614416.73294,1616614416.72957,1616614419.73212,1,2,4,low_cue,1616614584.15013,1616614584.1420002,398.51016306877096,-1,1616614185.63416,low_stim,pain,1616614185.63184,4,10,7
1616614423.41741,0.693708419799805,1616614423.41539,1616614428.15232,0.758607625961304,1616614428.15049,1616614437.92285,3.18829703330994,1616614437.9208,1616614420.7499301,1.66228008270264,1616614420.74773,0.0535430908203125,1616614422.4168901,h015.png,1616614422.41502,high_cue,3.03457903862,66.83161284650251,FIX,1616614424.13374,1616614424.1323302,1616614427.16691,0,0,0,,,,0,0,Command Recieved: TRIGGER_AND_Response: RESULT_OK,,,1616614428.9647,1616614428.96353,high_stim,2.61775660514832,78.9151087077577,FIX,1616614441.13322,1616614441.1220002,1616614443.73975,6,2,4,high_cue,1616614584.15013,1616614584.1420002,398.51016306877096,-1,1616614185.63416,high_stim,pain,1616614185.63184,4,10,8
1616614450.82728,1.98348665237427,1616614450.82562,1616614456.8506598,6.26457476615906,1616614456.84453,1616614472.11874,3.99221134185791,1616614472.11689,1616614445.15056,4.66976451873779,1616614445.1401598,0.0657820701599121,1616614449.8269699,h039.png,1616614449.8252401,high_cue,2.7558789253234903,95.29856506989991,FIX,1616614452.83288,1616614452.82636,1616614455.58224,0,0,0,,,,0,0,Command Recieved: TRIGGER_AND_Response: RESULT_OK,,,1616614463.1761,1616614463.17535,high_stim,3.18468284606934,87.2408923413797,FIX,1616614476.13324,1616614476.11838,1616614479.30306,6,2,4,high_cue,1616614584.15013,1616614584.1420002,398.51016306877096,-1,1616614185.63416,high_stim,pain,1616614185.63184,4,10,9
1616614485.02343,1.78739953041077,1616614485.0217,1616614490.84188,14.6685626506805,1616614490.84054,1616614514.51734,2.1930673122406,1616614514.51603,1616614480.15022,3.8734350204467796,1616614480.13655,0.0657501220703125,1616614484.02301,h028.png,1616614484.02133,high_cue,2.9764168262481703,99.46232220802558,FIX,1616614486.83344,1616614486.8223698,1616614489.79879,0,0,0,,,,0,0,Command Recieved: TRIGGER_AND_Response: RESULT_OK,,,1616614505.57771,1616614505.57602,low_stim,1.98420429229736,9.9546069435557,FIX,1616614516.73453,1616614516.73353,1616614518.71773,4,2,4,high_cue,1616614584.15013,1616614584.1420002,398.51016306877096,-1,1616614185.63416,low_stim,pain,1616614185.63184,4,10,10
1616614522.6208801,1.8900446891784701,1616614522.61906,1616614528.53968,0.7711727619171139,1616614528.53793,1616614538.32687,6.684187650680539,1616614538.32491,1616614520.76988,0.8413310050964359,1616614520.76837,0.0466740131378174,1616614521.61964,h009.png,1616614521.61868,high_cue,2.60110068321228,71.4170003967337,FIX,1616614524.5329,1616614524.51977,1616614527.1208699,0,0,0,,,,0,0,Command Recieved: TRIGGER_AND_Response: RESULT_OK,,,1616614529.3583,1616614529.35671,low_stim,2.7046940326690696,20.6096929375321,FIX,1616614545.03345,1616614545.02741,1616614547.73211,4,2,4,high_cue,1616614584.15013,1616614584.1420002,398.51016306877096,-1,1616614185.63416,low_stim,pain,1616614185.63184,4,10,11
1616614553.6173801,0.895152568817139,1616614553.61395,1616614558.5511901,7.55997896194458,1616614558.54912,1616614575.12378,4.98713326454163,1616614575.12197,1616614549.04966,3.56443881988525,1616614549.0455801,0.0506401062011719,1616614552.6319199,l007.png,1616614552.63025,low_cue,1.61779475212097,2.0700306530411003,FIX,1616614554.53344,1616614554.5309598,1616614556.14875,0,0,0,,,,0,0,Command Recieved: TRIGGER_AND_Response: RESULT_OK,,,1616614566.16231,1616614566.16064,med_stim,2.5083532333374,33.5627437810924,FIX,1616614580.13323,1616614580.12383,1616614582.63219,2,2,4,low_cue,1616614584.15013,1616614584.1420002,398.51016306877096,-1,1616614185.63416,med_stim,pain,1616614185.63184,4,10,12
1616615567.00085,1.6920869350433303,1616615566.99186,1616615572.73534,6.3566145896911594,1616615572.72733,1616615588.10165,7.0842146873474094,1616615588.09973,1616615565.40076,0.5942339897155761,1616615565.39126,0.10492205619811999,1616615566.00093,l027.png,1616615565.9914901,low_cue,2.90641713142395,13.978368962849,FIX,1616615568.71688,1616615568.7091699,1616615571.61558,0,0,0,,,,0,0,Command Recieved: TRIGGER_AND_Response: RESULT_OK,,,1616615579.19796,1616615579.1970801,high_stim,2.93460369110107,50.194428907734796,FIX,1616615595.2033,1616615595.2023802,1616615598.13698,3,1,4,low_cue,1616615961.24093,1616615961.2388802,398.632310152054,2,1616615562.60851,high_stim,pain,1616615562.60657,4,10,13
1616615605.20049,2.09450936317444,1616615605.18944,1616615611.32711,4.458887815475459,1616615611.32506,1616615624.8008,7.08719706535339,1616615624.79675,1616615599.23911,4.94769859313965,1616615599.2372198,0.0379118919372559,1616615604.2076302,h036.png,1616615604.20574,high_cue,2.41780304908752,54.141640223524895,FIX,1616615607.30751,1616615607.30689,1616615609.7247,0,0,0,,,,0,0,Command Recieved: TRIGGER_AND_Response: RESULT_OK,,,1616615615.82464,1616615615.82282,med_stim,1.86748671531677,13.701510492346499,FIX,1616615631.90045,1616615631.8994,1616615633.76689,5,1,4,high_cue,1616615961.24093,1616615961.2388802,398.632310152054,2,1616615562.60851,med_stim,pain,1616615562.60657,4,10,14
1616615642.00539,2.08077955245972,1616615642.00317,1616615648.1240098,0.461832046508789,1616615648.12211,1616615657.60062,2.79163312911987,1616615657.59231,1616615635.93583,5.05058169364929,1616615635.93424,0.101119041442871,1616615641.00436,l032.png,1616615641.00279,low_cue,1.85088992118835,6.95295746817392,FIX,1616615644.1049,1616615644.10395,1616615645.95484,0,0,0,,,,0,0,Command Recieved: TRIGGER_AND_Response: RESULT_OK,,,1616615648.68677,1616615648.68595,low_stim,3.12227058410645,6.89742755775175,FIX,1616615660.39989,1616615660.39336,1616615663.51563,1,1,4,low_cue,1616615961.24093,1616615961.2388802,398.632310152054,2,1616615562.60851,low_stim,pain,1616615562.60657,4,10,15
1616615669.50072,0.48719429969787603,1616615669.49675,1616615674.01743,0.7688429355621341,1616615674.0151,1616615683.80417,6.78185892105103,1616615683.80209,1616615664.43348,4.05680274963379,1616615664.4282,0.0434730052947998,1616615668.50051,l023.png,1616615668.49638,low_cue,3.16865110397339,6.66961984231233,FIX,1616615669.99995,1616615669.9969401,1616615673.16559,0,0,0,,,,0,0,Command Recieved: TRIGGER_AND_Response: RESULT_OK,,,1616615674.8294199,1616615674.82807,low_stim,3.21796870231628,6.66961984231233,FIX,1616615690.61656,1616615690.60462,1616615693.82259,1,1,4,low_cue,1616615961.24093,1616615961.2388802,398.632310152054,2,1616615562.60851,low_stim,pain,1616615562.60657,4,10,16
1616615700.70067,2.09222841262817,1616615700.69172,1616615706.83408,3.65660548210144,1616615706.8273401,1616615719.5003,2.9852139949798597,1616615719.4987302,1616615694.64094,5.04549694061279,1616615694.6394598,0.0839638710021973,1616615699.70051,h027.png,1616615699.69135,high_cue,2.539790391922,47.927347991740895,FIX,1616615702.81037,1616615702.80918,1616615705.34897,0,0,0,,,,0,0,Command Recieved: TRIGGER_AND_Response: RESULT_OK,,,1616615710.57039,1616615710.56886,low_stim,2.3176648616790803,19.885165113855397,FIX,1616615722.50078,1616615722.49985,1616615724.81752,4,1,4,high_cue,1616615961.24093,1616615961.2388802,398.632310152054,2,1616615562.60851,low_stim,pain,1616615562.60657,4,10,17
1616615732.60586,0.9803261756896969,1616615732.6036198,1616615737.62412,0.461787700653076,1616615737.62216,1616615747.1003,2.7915909290313703,1616615747.09236,1616615726.53633,5.05026364326477,1616615726.5346901,0.0492720603942871,1616615731.60539,h042.png,1616615731.60325,high_cue,2.51771354675293,87.408133294765,FIX,1616615733.60565,1616615733.60399,1616615736.12171,0,0,0,,,,0,0,Command Recieved: TRIGGER_AND_Response: RESULT_OK,,,1616615738.1355,1616615738.13406,med_stim,1.60553455352783,55.1018764389705,FIX,1616615749.89941,1616615749.8934,1616615751.49894,5,1,4,high_cue,1616615961.24093,1616615961.2388802,398.632310152054,2,1616615562.60851,med_stim,pain,1616615562.60657,4,10,18
1616615758.0004802,0.987523794174194,1616615757.99642,1616615763.01699,6.9689843654632595,1616615763.01496,1616615779.00639,5.8796894550323495,1616615779.00426,1616615753.9170198,3.0732626914977996,1616615753.9115698,0.0695078372955322,1616615757.0003,h011.png,1616615756.99605,high_cue,3.05221652984619,47.927347991740895,FIX,1616615758.9995599,1616615758.9968,1616615762.04901,0,0,0,,,,0,0,Command Recieved: TRIGGER_AND_Response: RESULT_OK,,,1616615770.05619,1616615770.0548801,low_stim,1.8174548149108898,25.7407083562328,FIX,1616615784.90753,1616615784.90646,1616615786.7239099,4,1,4,high_cue,1616615961.24093,1616615961.2388802,398.632310152054,2,1616615562.60851,low_stim,pain,1616615562.60657,4,10,19
1616615798.40012,1.4891247749328602,1616615798.39482,1616615803.91771,7.9703996181488,1616615803.91355,1616615820.90543,4.38073182106018,1616615820.90322,1616615788.93396,8.46021962165833,1616615788.92462,0.0754470825195312,1616615797.40008,l039.png,1616615797.39445,low_cue,2.6035916805267303,26.667731675598997,FIX,1616615799.8998,1616615799.89538,1616615802.49897,0,0,0,,,,0,0,Command Recieved: TRIGGER_AND_Response: RESULT_OK,,,1616615811.9605598,1616615811.95985,high_stim,1.95091032981873,83.7866247347216,FIX,1616615825.30569,1616615825.3048599,1616615827.25577,3,1,4,low_cue,1616615961.24093,1616615961.2388802,398.632310152054,2,1616615562.60851,high_stim,pain,1616615562.60657,4,10,20
1616615835.4005,2.0919952392578103,1616615835.39195,1616615841.5174901,5.6730463504791295,1616615841.5109,1616615856.2016802,0.784235954284668,1616615856.19971,1616615829.33337,5.06178736686707,1616615829.32302,0.0677609443664551,1616615834.401,l053.png,1616615834.39158,low_cue,2.8562469482421897,11.805792300589001,FIX,1616615837.4996,1616615837.4927402,1616615840.3489802,0,0,0,,,,0,0,Command Recieved: TRIGGER_AND_Response: RESULT_OK,,,1616615847.25358,1616615847.25233,med_stim,2.15099859237671,46.6272833223936,FIX,1616615857.0009902,1616615857.00001,1616615859.15101,2,1,4,low_cue,1616615961.24093,1616615961.2388802,398.632310152054,2,1616615562.60851,med_stim,pain,1616615562.60657,4,10,21
1616615863.5045302,0.881511688232422,1616615863.50243,1616615868.42232,7.66301035881042,1616615868.42094,1616615885.1003199,3.5901265144348105,1616615885.0938199,1616615861.03534,1.46664834022522,1616615861.0181801,0.0691120624542236,1616615862.50395,l004.png,1616615862.50206,low_cue,2.4344134330749503,6.95295746817392,FIX,1616615864.40375,1616615864.4027698,1616615866.8371801,0,0,0,,,,0,0,Command Recieved: TRIGGER_AND_Response: RESULT_OK,,,1616615876.1543698,1616615876.1535802,med_stim,3.0871388912200897,15.315451196918499,FIX,1616615888.6996,1616615888.69516,1616615891.7823,2,1,4,low_cue,1616615961.24093,1616615961.2388802,398.632310152054,2,1616615562.60851,med_stim,pain,1616615562.60657,4,10,22
1616615901.50186,1.68400764465332,1616615901.4999402,1616615907.22058,1.36520886421204,1616615907.21874,1616615917.60046,0.49467349052429205,1616615917.5892699,1616615892.7169302,7.7714536190032995,1616615892.71333,0.0702929496765137,1616615900.5009902,h026.png,1616615900.49957,high_cue,2.36775517463684,52.347170179116404,FIX,1616615903.20158,1616615903.2005699,1616615905.56833,0,0,0,,,,0,0,Command Recieved: TRIGGER_AND_Response: RESULT_OK,,,1616615908.65663,1616615908.6549401,high_stim,3.4014356136322004,58.7575309640403,FIX,1616615918.10709,1616615918.1061301,1616615921.50757,6,1,4,high_cue,1616615961.24093,1616615961.2388802,398.632310152054,2,1616615562.60851,high_stim,pain,1616615562.60657,4,10,23
1616615926.20084,1.1914660930633503,1616615926.19248,1616615931.43383,7.65618085861206,1616615931.42777,1616615948.10245,9.08329677581787,1616615948.10065,1616615922.1427,3.0438756942749,1616615922.14097,0.0745100975036621,1616615925.20093,h028.png,1616615925.19211,high_cue,2.0893614292144798,66.52900688183911,FIX,1616615927.41047,1616615927.4096,1616615929.49896,0,0,0,,,,0,0,Command Recieved: TRIGGER_AND_Response: RESULT_OK,,,1616615939.16199,1616615939.15956,high_stim,,,FIX,1616615957.20542,1616615957.20405,,6,1,4,high_cue,1616615961.24093,1616615961.2388802,398.632310152054,2,1616615562.60851,high_stim,pain,1616615562.60657,4,10,24
1616008757.7925699,1.19043827056885,1616008757.7816699,1616008763.02626,4.65515327453613,1616008763.01696,1616008776.6926,5.18338823318481,1616008776.68872,1616008751.6926801,5.09427857398987,1616008751.6794,0.0481688976287842,1616008756.79234,h026.png,1616008756.7813,high_cue,2.10849857330322,47.433201054737204,FIX,1616008759.00833,1616008758.99879,1616008761.10729,0,0,0,,,,0,0,Command Recieved: TRIGGER_AND_Response: RESULT_OK,,,1616008767.7260802,1616008767.72491,low_stim,,,FIX,1616008781.89153,1616008781.89066,,4,2,4,high_cue,1616009147.72945,1616009147.71042,398.81089925765997,4,1616008748.90138,low_stim,pain,1616008748.89952,3,10,25
1616008787.4925802,1.39603209495544,1616008787.4760802,1616008792.9132302,1.3606712818145799,1616008792.9114401,1616008803.29225,3.09013605117798,1616008803.28197,1616008785.92725,0.5475449562072751,1616008785.9255,0.0357050895690918,1616008786.49498,l010.png,1616008786.4923801,low_cue,2.5177764892578103,30.058125479486698,FIX,1616008788.89454,1616008788.89327,1616008791.41105,0,0,0,,,,0,0,Command Recieved: TRIGGER_AND_Response: RESULT_OK,,,1616008794.3090198,1616008794.30829,med_stim,3.55750012397766,56.628947994247106,FIX,1616008806.3915699,1616008806.38313,1616008809.94063,2,2,4,low_cue,1616009147.72945,1616009147.71042,398.81089925765997,4,1616008748.90138,med_stim,pain,1616008748.89952,3,10,26
1616008816.59205,1.18517565727234,1616008816.58693,1616008821.80865,6.9665625095367405,1616008821.80555,1616008837.79225,1.49393963813782,1616008837.7781699,1616008810.50861,5.07169127464294,1616008810.5013301,0.0461549758911133,1616008815.59225,h056.png,1616008815.58656,high_cue,2.7864394187927206,62.164271136054204,FIX,1616008817.79145,1616008817.78738,1616008820.5738199,0,0,0,,,,0,0,Command Recieved: TRIGGER_AND_Response: RESULT_OK,,,1616008828.81975,1616008828.81894,low_stim,,,FIX,1616008839.29624,1616008839.2954,,4,2,4,high_cue,1616009147.72945,1616009147.71042,398.81089925765997,4,1616008748.90138,low_stim,pain,1616008748.89952,3,10,27
1616008845.39189,2.49110221862793,1616008845.38101,1616008851.91851,2.55533385276794,1616008851.91678,1616008863.4921,6.184351205825809,1616008863.48776,1616008843.3317099,1.04275035858154,1616008843.33024,0.0433938503265381,1616008844.39209,l044.png,1616008844.38063,low_cue,2.71781635284424,23.470993118160898,FIX,1616008847.89956,1616008847.8986099,1616008850.61643,0,0,0,,,,0,0,Command Recieved: TRIGGER_AND_Response: RESULT_OK,,,1616008854.51725,1616008854.51623,med_stim,1.8009967803955098,46.847610265994604,FIX,1616008869.6916401,1616008869.69007,1616008871.49107,2,2,4,low_cue,1616009147.72945,1616009147.71042,398.81089925765997,4,1616008748.90138,med_stim,pain,1616008748.89952,3,10,28
1616008875.7924302,0.696435689926147,1616008875.7756698,1616008880.51233,0.561336278915405,1616008880.5107698,1616008890.0920699,6.1910994052887,1616008890.0810099,1616008873.7267802,1.0481131076812702,1616008873.72491,0.0317690372467041,1616008874.79389,h049.png,1616008874.79197,high_cue,2.40107178688049,61.995142611956396,FIX,1616008876.4937,1616008876.49261,1616008878.89368,0,0,0,,,,0,0,Command Recieved: TRIGGER_AND_Response: RESULT_OK,,,1616008881.1059,1616008881.10463,high_stim,,,FIX,1616008896.29126,1616008896.28332,,6,2,4,high_cue,1616009147.72945,1616009147.71042,398.81089925765997,4,1616008748.90138,high_stim,pain,1616008748.89952,3,10,29
1616008901.89237,2.4866979122161896,1616008901.88541,1616008908.40884,8.1676025390625,1616008908.40451,1616008925.5921,5.1945295333862305,1616008925.57758,1616008900.32526,0.554886817932129,1616008900.31816,0.0715639591217041,1616008900.8921099,l043.png,1616008900.88504,low_cue,2.63748383522034,27.1811110854772,FIX,1616008904.39142,1616008904.3863401,1616008907.0238302,0,0,0,,,,0,0,Command Recieved: TRIGGER_AND_Response: RESULT_OK,,,1616008916.6454,1616008916.64426,low_stim,2.9178655147552504,12.3532082341741,FIX,1616008930.79736,1616008930.79619,1616008933.71406,1,2,4,low_cue,1616009147.72945,1616009147.71042,398.81089925765997,4,1616008748.90138,low_stim,pain,1616008748.89952,3,10,30
1616008937.39254,1.1901280879974399,1616008937.3819802,1616008942.60279,8.17151570320129,1616008942.60059,1616008959.7918599,6.281771659851071,1616008959.79034,1616008934.8248801,1.5586793422699,1616008934.81436,0.0603208541870117,1616008936.3924,l055.png,1616008936.38161,low_cue,3.2413561344146697,18.7998851586527,FIX,1616008938.59151,1616008938.5824301,1616008941.82379,0,0,0,,,,0,0,Command Recieved: TRIGGER_AND_Response: RESULT_OK,,,1616008950.83446,1616008950.83321,high_stim,3.0346434116363503,43.215156675681,FIX,1616008966.09361,1616008966.09269,1616008969.12733,3,2,4,low_cue,1616009147.72945,1616009147.71042,398.81089925765997,4,1616008748.90138,high_stim,pain,1616008748.89952,3,10,31
1616008973.29245,1.1934080123901398,1616008973.2787,1616008978.51631,0.5581231117248541,1616008978.51399,1616008988.0920599,6.28788757324219,1616008988.08422,1616008970.12571,2.16217350959778,1616008970.11085,0.0419540405273438,1616008972.2924302,l006.png,1616008972.27833,low_cue,2.5177617073059104,20.282559088916603,FIX,1616008974.49736,1616008974.4958198,1616008977.01358,0,0,0,,,,0,0,Command Recieved: TRIGGER_AND_Response: RESULT_OK,,,1616008979.11596,1616008979.11482,low_stim,2.52057313919067,20.3948760820484,FIX,1616008994.3914301,1616008994.38657,1616008996.90715,1,2,4,low_cue,1616009147.72945,1616009147.71042,398.81089925765997,4,1616008748.90138,low_stim,pain,1616008748.89952,3,10,32
1616009009.19396,2.48001551628113,1616009009.19209,1616009015.7128,2.56091856956482,1616009015.71119,1616009027.29212,3.08993673324585,1616009027.2821698,1616008998.4084,9.76828694343567,1616008998.40474,0.0280349254608154,1616009008.1936,h005.png,1616009008.19172,high_cue,,,FIX,1616009011.69432,1616009011.69303,,0,0,0,,,,0,0,Command Recieved: TRIGGER_AND_Response: RESULT_OK,,,1616009018.3026,1616009018.30098,high_stim,2.50717210769653,84.8895824389688,FIX,1616009030.3914402,1616009030.38333,1616009032.8905,6,2,4,high_cue,1616009147.72945,1616009147.71042,398.81089925765997,4,1616008748.90138,high_stim,pain,1616008748.89952,3,10,33
1616009041.59253,1.38460040092468,1616009041.5875099,1616009047.0086699,1.56591320037842,1616009047.0062,1616009057.59205,1.49530601501465,1616009057.5768,1616009034.41992,6.15487289428711,1616009034.41817,0.0674529075622559,1616009040.59203,l009.png,1616009040.58714,low_cue,1.55246353149414,0.0,FIX,1616009042.99125,1616009042.9880302,1616009044.5404902,0,0,0,,,,0,0,Command Recieved: TRIGGER_AND_Response: RESULT_OK,,,1616009048.64159,1616009048.64029,high_stim,2.1176373958587598,31.0435556162882,FIX,1616009059.09516,1616009059.0940402,1616009061.2116802,3,2,4,low_cue,1616009147.72945,1616009147.71042,398.81089925765997,4,1616008748.90138,high_stim,pain,1616008748.89952,3,10,34
1616009078.59202,1.38747000694275,1616009078.58464,1616009084.00986,9.668781042099,1616009084.00333,1616009102.6922,5.99515342712402,1616009102.67696,1616009063.12502,14.4607908725739,1616009063.1122,0.0324201583862305,1616009077.59254,h010.png,1616009077.58427,high_cue,2.12200546264648,65.80374741220879,FIX,1616009079.99138,1616009079.9851599,1616009082.1071699,0,0,0,,,,0,0,Command Recieved: TRIGGER_AND_Response: RESULT_OK,,,1616009093.70586,1616009093.70505,med_stim,,,FIX,1616009108.69676,1616009108.69587,,5,2,4,high_cue,1616009147.72945,1616009147.71042,398.81089925765997,4,1616008748.90138,med_stim,pain,1616008748.89952,3,10,35
1616009119.49231,0.9888846874237059,1616009119.4832199,1616009124.50329,6.97034764289856,1616009124.50176,1616009140.4928901,3.18105053901672,1616009140.49106,1616009112.73229,5.74231290817261,1616009112.73071,0.0535080432891846,1616009118.49229,h050.png,1616009118.48285,high_cue,1.79021906852722,53.0835960498295,FIX,1616009120.49144,1616009120.4836,1616009122.27382,0,0,0,,,,0,0,Command Recieved: TRIGGER_AND_Response: RESULT_OK,,,1616009131.52807,1616009131.52669,med_stim,2.0675907135009797,33.0527658954005,FIX,1616009143.69293,1616009143.69225,1616009145.75984,5,2,4,high_cue,1616009147.72945,1616009147.71042,398.81089925765997,4,1616008748.90138,med_stim,pain,1616008748.89952,3,10,36
1616008238.82588,2.28220772743225,1616008238.82147,1616008245.1764,12.129838466644301,1616008245.17384,1616008266.32604,5.78861999511719,1616008266.31506,1616008229.62899,8.18757963180542,1616008229.61804,0.0922350883483887,1616008237.82746,l032.png,1616008237.8211,low_cue,3.3349595069885294,14.484733560323,FIX,1616008241.15775,1616008241.1556802,1616008244.49064,0,0,0,,,,0,0,Command Recieved: TRIGGER_AND_Response: RESULT_OK,,,1616008257.4145699,1616008257.41376,med_stim,3.04015612602234,47.433201054737204,FIX,1616008272.12477,1616008272.11722,1616008275.15738,2,1,4,low_cue,1616008625.8512402,1616008625.84914,399.02704811096197,3,1616008226.82685,med_stim,pain,1616008226.8220901,3,10,37
1616008279.32569,1.18377280235291,1616008279.31991,1616008284.54219,2.6651594638824503,1616008284.5385199,1616008296.22523,5.794140815734861,1616008296.2095401,1616008276.27104,2.0360567569732697,1616008276.26877,0.040726900100708,1616008278.32635,l044.png,1616008278.31954,low_cue,3.18674206733704,28.628870905535003,FIX,1616008280.52448,1616008280.52036,1616008283.7071,0,0,0,,,,0,0,Command Recieved: TRIGGER_AND_Response: RESULT_OK,,,1616008287.24595,1616008287.2449698,high_stim,2.88470864295959,50.694430717755395,FIX,1616008302.02947,1616008302.0283802,1616008304.91308,3,1,4,low_cue,1616008625.8512402,1616008625.84914,399.02704811096197,3,1616008226.82685,high_stim,pain,1616008226.8220901,3,10,38
1616008310.82571,1.7886927127838101,1616008310.81499,1616008316.65944,0.653327703475952,1616008316.6505,1616008326.32539,0.882909536361694,1616008326.32077,1616008306.08118,3.72496461868286,1616008306.07989,0.0621011257171631,1616008309.82533,h001.png,1616008309.81462,high_cue,2.40123963356018,60.454556215124505,FIX,1616008312.6336699,1616008312.6323302,1616008315.0335698,0,0,0,,,,0,0,Command Recieved: TRIGGER_AND_Response: RESULT_OK,,,1616008317.3677301,1616008317.36656,low_stim,3.5033209323883097,42.722391041665894,FIX,1616008327.2246401,1616008327.2211099,1616008330.72443,4,1,4,high_cue,1616008625.8512402,1616008625.84914,399.02704811096197,3,1616008226.82685,low_stim,pain,1616008226.8220901,3,10,39
1616008345.0257301,1.09260725975037,1616008345.01107,1616008350.14805,7.45735764503479,1616008350.1463199,1616008366.62525,5.784548044204709,1616008366.6191301,1616008331.3092198,12.6988084316254,1616008331.30596,0.0510439872741699,1616008344.02562,h036.png,1616008344.0107,high_cue,2.55116748809814,61.481272211329205,FIX,1616008346.12889,1616008346.12816,1616008348.6793199,0,0,0,,,,0,0,Command Recieved: TRIGGER_AND_Response: RESULT_OK,,,1616008357.65683,1616008357.65547,med_stim,2.98586559295654,55.290315457281196,FIX,1616008372.42488,1616008372.42129,1616008375.40716,5,1,4,high_cue,1616008625.8512402,1616008625.84914,399.02704811096197,3,1616008226.82685,med_stim,pain,1616008226.8220901,3,10,40
1616008378.3264,1.1801846027374299,1616008378.3235,1616008383.89362,11.811439275741598,1616008383.89224,1616008404.72669,1.6870088577270501,1616008404.71667,1616008376.4597301,0.8492434024810791,1616008376.45613,0.0475339889526367,1616008377.32641,h031.png,1616008377.3231199,high_cue,3.81827116012573,63.434948822922,FIX,1616008379.52479,1616008379.52394,1616008383.34221,0,0,0,,,,0,0,Command Recieved: TRIGGER_AND_Response: RESULT_OK,,,1616008395.75445,1616008395.75262,high_stim,2.6064610481262203,66.1074976919734,FIX,1616008406.42424,1616008406.41731,1616008409.0237699,6,1,4,high_cue,1616008625.8512402,1616008625.84914,399.02704811096197,3,1616008226.82685,high_stim,pain,1616008226.8220901,3,10,41
1616008412.9251802,0.983948707580566,1616008412.9197302,1616008417.94206,2.4654111862182595,1616008417.9382699,1616008429.42555,1.69446659088135,1616008429.40921,1616008410.47493,1.43569660186768,1616008410.4688199,0.0419769287109375,1616008411.9253302,l053.png,1616008411.91936,low_cue,3.15361499786377,30.32360686255,FIX,1616008413.92468,1616008413.9201,1616008417.07372,0,0,0,,,,0,0,Command Recieved: TRIGGER_AND_Response: RESULT_OK,,,1616008420.44748,1616008420.4463599,high_stim,2.4343707561492898,58.9182701696221,FIX,1616008431.1273699,1616008431.12652,1616008433.56089,3,1,4,low_cue,1616008625.8512402,1616008625.84914,399.02704811096197,3,1616008226.82685,high_stim,pain,1616008226.8220901,3,10,42
1616008441.0255802,2.2901377677917503,1616008441.01354,1616008447.33405,2.4711146354675297,1616008447.33256,1616008458.8256,6.0834972858429,1616008458.8201802,1616008435.16307,4.84323310852051,1616008435.16136,0.03289794921875,1616008440.02631,l026.png,1616008440.01317,low_cue,2.5678865909576403,38.3375228934037,FIX,1616008443.32474,1616008443.3144,1616008445.8822901,0,0,0,,,,0,0,Command Recieved: TRIGGER_AND_Response: RESULT_OK,,,1616008449.83919,1616008449.8375401,low_stim,2.48473858833313,20.6906685139331,FIX,1616008464.92467,1616008464.92246,1616008467.4072,1,1,4,low_cue,1616008625.8512402,1616008625.84914,399.02704811096197,3,1616008226.82685,low_stim,pain,1616008226.8220901,3,10,43
1616008472.12565,1.9952070713043202,1616008472.10847,1616008478.14619,0.659624814987183,1616008478.14405,1616008487.8252,1.9893524646759,1616008487.81433,1616008468.95865,2.16384863853455,1616008468.94062,0.0439519882202148,1616008471.12519,h003.png,1616008471.1081,high_cue,3.36809277534485,55.7995158697315,FIX,1616008474.1269,1616008474.12589,1616008477.4939802,0,0,0,,,,0,0,Command Recieved: TRIGGER_AND_Response: RESULT_OK,,,1616008478.84945,1616008478.84833,high_stim,3.5253348350524902,69.9576832551064,FIX,1616008489.82437,1616008489.81507,1616008493.34041,6,1,4,high_cue,1616008625.8512402,1616008625.84914,399.02704811096197,3,1616008226.82685,high_stim,pain,1616008226.8220901,3,10,44
1616008498.2253,0.985471487045288,1616008498.21821,1616008503.54203,2.96682262420654,1616008503.53686,1616008515.5263,9.87901830673218,1616008515.5246599,1616008493.90856,3.30469965934753,1616008493.89993,0.0495100021362305,1616008497.22562,h016.png,1616008497.2178302,high_cue,3.7718350887298597,59.1150546692714,FIX,1616008499.2246099,1616008499.21858,1616008502.9904199,0,0,0,,,,0,0,Command Recieved: TRIGGER_AND_Response: RESULT_OK,,,1616008506.5543802,1616008506.5536802,low_stim,2.53440141677856,13.4778227532413,FIX,1616008525.42962,1616008525.42835,1616008527.96276,4,1,4,high_cue,1616008625.8512402,1616008625.84914,399.02704811096197,3,1616008226.82685,low_stim,pain,1616008226.8220901,3,10,45
1616008531.92544,1.1895725727081299,1616008531.91411,1616008537.13483,1.27095913887024,1616008537.13272,1616008547.42534,9.18379020690918,1616008547.41989,1616008529.4647,1.4413170814514198,1616008529.46319,0.0398850440979004,1616008530.92531,l005.png,1616008530.9137301,low_cue,1.84254860877991,14.6012722858339,FIX,1616008533.12484,1616008533.11455,1616008534.9571,0,0,0,,,,0,0,Command Recieved: TRIGGER_AND_Response: RESULT_OK,,,1616008538.4453099,1616008538.4441,med_stim,2.3364081382751496,22.1427056998454,FIX,1616008556.6243699,1616008556.6233199,1616008558.9597301,2,1,4,low_cue,1616008625.8512402,1616008625.84914,399.02704811096197,3,1616008226.82685,med_stim,pain,1616008226.8220901,3,10,46
1616008565.92532,1.1935627460479699,1616008565.91012,1616008571.1473,5.858276844024661,1616008571.1454,1616008586.02601,4.68606305122375,1616008586.0176198,1616008560.64261,4.26305961608887,1616008560.64149,0.0387330055236816,1616008564.92531,l030.png,1616008564.90974,low_cue,2.40114665031433,8.78116273438546,FIX,1616008567.12832,1616008567.12724,1616008569.5283802,0,0,0,,,,0,0,Command Recieved: TRIGGER_AND_Response: RESULT_OK,,,1616008577.0436199,1616008577.0429301,low_stim,2.90436720848083,5.298565069899941,FIX,1616008590.7246099,1616008590.71937,1616008593.62374,1,1,4,low_cue,1616008625.8512402,1616008625.84914,399.02704811096197,3,1616008226.82685,low_stim,pain,1616008226.8220901,3,10,47
1616008603.92501,1.79605770111084,1616008603.90762,1616008609.74474,2.46054887771606,1616008609.74313,1616008621.2262301,0.589603424072266,1616008621.21408,1616008594.7413,8.166986703872679,1616008594.73753,0.0398960113525391,1616008602.92531,h024.png,1616008602.92392,high_cue,2.01764321327209,86.2328760807781,FIX,1616008605.72583,1616008605.7249599,1616008607.74261,0,0,0,,,,0,0,Command Recieved: TRIGGER_AND_Response: RESULT_OK,,,1616008612.24537,1616008612.24429,med_stim,2.09280705451965,66.62047604722339,FIX,1616008621.82463,1616008621.8143,1616008623.90711,5,1,4,high_cue,1616008625.8512402,1616008625.84914,399.02704811096197,3,1616008226.82685,med_stim,pain,1616008226.8220901,3,10,48
1615231976.0496302,1.38628602027893,1615231976.0483198,1615231981.48509,8.75089836120605,1615231981.48371,1615231999.2421598,2.39419531822205,1615231999.2404099,1615231973.1484199,1.887934923172,1615231973.1472301,0.0790209770202637,1615231975.04896,h027.png,1615231975.04795,high_cue,3.3347809314727797,92.1386825776663,FIX,1615231977.4667199,1615231977.4655302,1615231980.80031,0,0,0,,,,0,0,Command Recieved: TRIGGER_AND_Response: RESULT_OK,,,1615231990.31673,1615231990.3162699,low_stim,2.55124235153198,59.511059500169104,FIX,1615232001.6582,1615232001.65799,1615232004.2092302,4,1,4,high_cue,1615232368.47797,1615232368.46314,398.10370397567704,6,1615231970.3600302,low_stim,pain,1615231970.35944,1,10,49
1615232008.54511,0.7906844615936279,1615232008.54392,1615232013.3636198,1.0721971988678,1615232013.36241,1615232023.45045,4.18505668640137,1615232023.44955,1615232005.69211,1.85853385925293,1615232005.6761801,0.0379948616027832,1615232007.5450099,l029.png,1615232007.54355,low_cue,3.25145530700684,11.1291892896112,FIX,1615232009.3583,1615232009.3442302,1615232012.59568,0,0,0,,,,0,0,Command Recieved: TRIGGER_AND_Response: RESULT_OK,,,1615232014.47327,1615232014.47305,low_stim,2.6901428699493395,34.5922886875099,FIX,1615232027.6582,1615232027.65114,1615232030.34128,1,1,4,low_cue,1615232368.47797,1615232368.46314,398.10370397567704,6,1615231970.3600302,low_stim,pain,1615231970.35944,1,10,50
1615232033.5545301,1.0812413692474399,1615232033.55337,1615232038.67569,6.76264214515686,1615232038.6719599,1615232054.4456801,2.5900211334228502,1615232054.44459,1615232031.67528,0.865381240844727,1615232031.6693199,0.0487539768218994,1615232032.55407,l055.png,1615232032.55299,low_cue,2.5376307964325,34.8981235610295,FIX,1615232034.65431,1615232034.65378,1615232037.19141,0,0,0,,,,0,0,Command Recieved: TRIGGER_AND_Response: RESULT_OK,,,1615232045.48435,1615232045.48395,med_stim,1.86747407913208,51.6624771065963,FIX,1615232057.0461,1615232057.04557,1615232058.91304,2,1,4,low_cue,1615232368.47797,1615232368.46314,398.10370397567704,6,1615231970.3600302,med_stim,pain,1615231970.35944,1,10,51
1615232063.14855,2.08673572540283,1615232063.1478698,1615232069.26793,5.16775941848755,1615232069.26685,1615232083.44287,2.29574131965637,1615232083.43887,1615232061.0756,1.07095670700073,1615232061.06375,0.0658810138702393,1615232062.1485,l048.png,1615232062.14749,low_cue,2.5177581310272203,11.309932474020199,FIX,1615232065.24884,1615232065.2486598,1615232067.76642,0,0,0,,,,0,0,Command Recieved: TRIGGER_AND_Response: RESULT_OK,,,1615232074.5015302,1615232074.50113,high_stim,3.2852261066436803,56.9472341045995,FIX,1615232085.7581801,1615232085.75641,1615232089.04163,3,1,4,low_cue,1615232368.47797,1615232368.46314,398.10370397567704,6,1615231970.3600302,high_stim,pain,1615231970.35944,1,10,52
1615232091.44287,1.39272046089172,1615232091.44189,1615232096.86188,5.57400941848755,1615232096.8606,1615232111.45031,3.5851671695709197,1615232111.44944,1615232089.77551,0.6601033210754389,1615232089.77459,0.0605239868164062,1615232090.44246,h011.png,1615232090.44151,high_cue,2.3177044391632102,75.8523946129983,FIX,1615232092.8426301,1615232092.8424199,1615232095.16012,0,0,0,,,,0,0,Command Recieved: TRIGGER_AND_Response: RESULT_OK,,,1615232102.4965,1615232102.49585,med_stim,1.65091347694397,41.847764570334704,FIX,1615232115.05099,1615232115.0508,1615232116.70171,5,1,4,high_cue,1615232368.47797,1615232368.46314,398.10370397567704,6,1615231970.3600302,med_stim,pain,1615231970.35944,1,10,53
1615232120.65381,1.08168935775757,1615232120.65292,1615232125.77582,5.46309375762939,1615232125.77151,1615232140.2444801,2.69096446037292,1615232140.24364,1615232119.08671,0.549051761627197,1615232119.08566,0.0669119358062744,1615232119.65377,h041.png,1615232119.65254,high_cue,1.85508513450623,66.3026557774829,FIX,1615232121.7534802,1615232121.75333,1615232123.60842,0,0,0,,,,0,0,Command Recieved: TRIGGER_AND_Response: RESULT_OK,,,1615232131.3030698,1615232131.30248,high_stim,2.13429665565491,60.454556215124505,FIX,1615232142.94509,1615232142.94466,1615232145.07896,6,1,4,high_cue,1615232368.47797,1615232368.46314,398.10370397567704,6,1615231970.3600302,high_stim,pain,1615231970.35944,1,10,54
1615232149.94839,1.08729982376099,1615232149.94731,1615232155.06709,2.5687007904052703,1615232155.0659099,1615232166.65485,10.880991697311401,1615232166.65362,1615232146.97628,1.97184538841248,1615232146.96285,0.0348849296569824,1615232148.94794,h022.png,1615232148.9469302,high_cue,2.50112843513489,112.65523270868,FIX,1615232151.04831,1615232151.04772,1615232153.54885,0,0,0,,,,0,0,Command Recieved: TRIGGER_AND_Response: RESULT_OK,,,1615232157.67019,1615232157.66996,low_stim,2.2510154247283904,21.8014094863518,FIX,1615232177.55935,1615232177.55773,1615232179.80875,4,1,4,high_cue,1615232368.47797,1615232368.46314,398.10370397567704,6,1615231970.3600302,low_stim,pain,1615231970.35944,1,10,55
1615232190.34725,1.08871507644653,1615232190.34589,1615232195.46557,0.8701169490814209,1615232195.46449,1615232205.35256,5.58304905891418,1615232205.3515599,1615232181.57686,7.75879001617432,1615232181.5759199,0.0474429130554199,1615232189.34634,h001.png,1615232189.34552,high_cue,2.1009283065795903,98.7811627343855,FIX,1615232191.44657,1615232191.44631,1615232193.54724,0,0,0,,,,0,0,Command Recieved: TRIGGER_AND_Response: RESULT_OK,,,1615232196.3828099,1615232196.38255,high_stim,3.62178683280945,83.96674699379929,FIX,1615232210.95421,1615232210.95367,1615232214.57546,6,1,4,high_cue,1615232368.47797,1615232368.46314,398.10370397567704,6,1615231970.3600302,high_stim,pain,1615231970.35944,1,10,56
1615232216.8431199,2.09537982940674,1615232216.83923,1615232222.9767,4.55972933769226,1615232222.97488,1615232236.5476198,4.28793811798096,1615232236.54667,1615232215.14304,0.696116924285889,1615232215.13859,0.0558619499206543,1615232215.84296,l039.png,1615232215.83885,low_cue,1.51881909370422,36.869897645844,FIX,1615232218.95696,1615232218.95669,1615232220.47551,0,0,0,,,,0,0,Command Recieved: TRIGGER_AND_Response: RESULT_OK,,,1615232227.5921302,1615232227.59135,low_stim,2.6844954490661603,13.2537156264954,FIX,1615232240.84866,1615232240.84829,1615232243.53279,1,1,4,low_cue,1615232368.47797,1615232368.46314,398.10370397567704,6,1615231970.3600302,low_stim,pain,1615231970.35944,1,10,57
1615232247.752,2.08371067047119,1615232247.7509,1615232253.87106,5.26473140716553,1615232253.86988,1615232268.1431901,4.19267749786377,1615232268.14193,1615232244.87639,1.86824679374695,1615232244.86648,0.0557889938354492,1615232246.75173,l053.png,1615232246.75052,low_cue,1.7342453002929699,34.1391853783627,FIX,1615232249.8519402,1615232249.85169,1615232251.5859401,0,0,0,,,,0,0,Command Recieved: TRIGGER_AND_Response: RESULT_OK,,,1615232259.1912801,1615232259.1909099,med_stim,2.50115013122559,36.3648998459456,FIX,1615232272.3436801,1615232272.34352,1615232274.8446698,2,1,4,low_cue,1615232368.47797,1615232368.46314,398.10370397567704,6,1615231970.3600302,med_stim,pain,1615231970.35944,1,10,58
1615232294.35273,1.3827810287475601,1615232294.35183,1615232299.7718198,1.36406826972961,1615232299.77054,1615232310.14326,1.3934857845306399,1615232310.14112,1615232276.3766599,16.973003387451197,1615232276.3617,0.052901029586792,1615232293.35251,l028.png,1615232293.35145,low_cue,2.28448867797852,13.2010871757056,FIX,1615232295.75245,1615232295.75235,1615232298.03684,0,0,0,,,,0,0,Command Recieved: TRIGGER_AND_Response: RESULT_OK,,,1615232301.1886199,1615232301.18818,high_stim,2.40107131004333,53.313889308454506,FIX,1615232311.54254,1615232311.54165,1615232313.94272,3,1,4,low_cue,1615232368.47797,1615232368.46314,398.10370397567704,6,1615231970.3600302,high_stim,pain,1615231970.35944,1,10,59
1615232333.65123,2.0846111774444602,1615232333.65,1615232339.77006,6.06563520431519,1615232339.76897,1615232354.84374,9.5932765007019,1615232354.84133,1615232315.56032,17.0748770236969,1615232315.5598302,0.0337920188903809,1615232332.6505198,h031.png,1615232332.6496198,high_cue,3.0180516242980997,57.970214843003,FIX,1615232335.75088,1615232335.75079,1615232338.76884,0,0,0,,,,0,0,Command Recieved: TRIGGER_AND_Response: RESULT_OK,,,1615232345.8694801,1615232345.8691099,med_stim,2.16778063774109,26.9765039210697,FIX,1615232364.44517,1615232364.4449599,1615232366.61274,5,1,4,high_cue,1615232368.47797,1615232368.46314,398.10370397567704,6,1615231970.3600302,med_stim,pain,1615231970.35944,1,10,60
1615230606.65274,0.996713161468506,1615230606.6484098,1615230611.6862302,1.9614844322204599,1615230611.68364,1615230622.6559598,5.1906857490539595,1615230622.6544302,1615230602.7655802,2.8818335533142103,1615230602.76361,0.0571541786193848,1615230605.66596,l021.png,1615230605.6647,low_cue,3.06947469711304,17.2567955279937,FIX,1615230607.6683,1615230607.6654599,1615230610.73493,0,0,0,,,,0,0,Command Recieved: TRIGGER_AND_Response: RESULT_OK,,,1615230613.71224,1615230613.71188,med_stim,2.7345800399780296,41.556554795040604,FIX,1615230627.86846,1615230627.85639,1615230630.59097,2,2,4,low_cue,1615230998.6872098,1615230998.67949,398.710291862488,3,1615230599.97019,med_stim,pain,1615230599.9692,1,10,61
1615230634.36052,1.2862758636474598,1615230634.35884,1615230639.67907,4.76760721206665,1615230639.67751,1615230653.4528,1.8957536220550502,1615230653.44937,1615230631.88626,1.47087335586548,1615230631.87457,0.0393850803375244,1615230633.36001,l014.png,1615230633.35847,low_cue,2.4423809051513703,22.1427056998454,FIX,1615230635.66846,1615230635.6593301,1615230638.1017098,0,0,0,,,,0,0,Command Recieved: TRIGGER_AND_Response: RESULT_OK,,,1615230644.48632,1615230644.4856,low_stim,2.33505058288574,28.7203267978695,FIX,1615230655.3685699,1615230655.36675,1615230657.70181,1,2,4,low_cue,1615230998.6872098,1615230998.67949,398.710291862488,3,1615230599.97019,low_stim,pain,1615230599.9692,1,10,62
1615230672.0576801,1.28874397277832,1615230672.05638,1615230677.37636,4.770074367523191,1615230677.37504,1615230691.16471,2.08154630661011,1615230691.16357,1615230659.3856099,11.660525321960401,1615230659.3849301,0.0664150714874268,1615230671.0571,l023.png,1615230671.056,low_cue,1.98425078392029,9.23555909316592,FIX,1615230673.36858,1615230673.35686,1615230675.34111,0,0,0,,,,0,0,Command Recieved: TRIGGER_AND_Response: RESULT_OK,,,1615230682.21304,1615230682.21231,high_stim,2.87100291252136,34.0771952801307,FIX,1615230693.2686,1615230693.26436,1615230696.13537,3,2,4,low_cue,1615230998.6872098,1615230998.67949,398.710291862488,3,1615230599.97019,high_stim,pain,1615230599.9692,1,10,63
1615230701.6532302,1.7942621707916298,1615230701.65086,1615230707.5374901,5.20871090888977,1615230707.5364099,1615230721.75973,2.88668537139893,1615230721.75843,1615230697.2857301,3.36290001869202,1615230697.28254,0.0403318405151367,1615230700.65278,h043.png,1615230700.65048,high_cue,3.5181331634521498,58.4236961059702,FIX,1615230703.46902,1615230703.46821,1615230706.98634,0,0,0,,,,0,0,Command Recieved: TRIGGER_AND_Response: RESULT_OK,,,1615230712.78654,1615230712.7860599,low_stim,3.02588152885437,36.50144112050629,FIX,1615230724.6686802,1615230724.6595302,1615230727.68541,4,2,4,high_cue,1615230998.6872098,1615230998.67949,398.710291862488,3,1615230599.97019,low_stim,pain,1615230599.9692,1,10,64
1615230736.76647,0.6810331344604489,1615230736.76409,1615230741.48723,6.262588262557981,1615230741.48253,1615230756.75709,2.89016580581665,1615230756.75495,1615230728.69649,7.05153560638428,1615230728.69438,0.0351498126983643,1615230735.7708302,h018.png,1615230735.76371,high_cue,2.57106113433838,79.09705516824809,FIX,1615230737.4692,1615230737.46435,1615230740.03541,0,0,0,,,,0,0,Command Recieved: TRIGGER_AND_Response: RESULT_OK,,,1615230747.7834,1615230747.78166,med_stim,3.8015763759612997,64.3673475477762,FIX,1615230759.66909,1615230759.65605,1615230763.45762,5,2,4,high_cue,1615230998.6872098,1615230998.67949,398.710291862488,3,1615230599.97019,med_stim,pain,1615230599.9692,1,10,65
1615230771.56204,0.784587383270264,1615230771.5605302,1615230776.38001,2.5661032199859597,1615230776.37902,1615230787.95311,2.89507603645325,1615230787.95004,1615230764.02528,6.5208623409271205,1615230764.02436,0.046666145324707003,1615230770.5613801,h014.png,1615230770.56016,high_cue,2.6345419883727996,81.44645729742821,FIX,1615230772.36118,1615230772.36083,1615230774.9953802,0,0,0,,,,0,0,Command Recieved: TRIGGER_AND_Response: RESULT_OK,,,1615230778.99261,1615230778.9923198,high_stim,2.7346541881561297,78.8708107103888,FIX,1615230790.8693,1615230790.86781,1615230793.60246,6,2,4,high_cue,1615230998.6872098,1615230998.67949,398.710291862488,3,1615230599.97019,high_stim,pain,1615230599.9692,1,10,66
1615230797.8547802,1.9913446903228798,1615230797.85378,1615230803.87383,6.27240800857544,1615230803.87271,1615230819.16305,11.7833120822906,1615230819.16181,1615230794.88679,1.9592359066009502,1615230794.8859901,0.0596261024475098,1615230796.85526,h001.png,1615230796.8534,high_cue,2.9512987136840803,73.0152674680114,FIX,1615230799.8547301,1615230799.85453,1615230802.80583,0,0,0,,,,0,0,Command Recieved: TRIGGER_AND_Response: RESULT_OK,,,1615230810.2054698,1615230810.20519,low_stim,2.31958436965942,53.130102354156,FIX,1615230830.9691699,1615230830.96626,1615230833.28584,4,2,4,high_cue,1615230998.6872098,1615230998.67949,398.710291862488,3,1615230599.97019,low_stim,pain,1615230599.9692,1,10,67
1615230837.9534,1.69289636611938,1615230837.95222,1615230843.67228,5.57407402992249,1615230843.67105,1615230858.2613199,0.985241174697876,1615230858.25988,1615230834.98627,1.96079349517822,1615230834.98444,0.0329048633575439,1615230836.95306,l012.png,1615230836.95185,low_cue,2.10094976425171,9.23555909316592,FIX,1615230839.65298,1615230839.65286,1615230841.75381,0,0,0,,,,0,0,Command Recieved: TRIGGER_AND_Response: RESULT_OK,,,1615230849.2795699,1615230849.27883,high_stim,3.0846781730651895,58.7994853960194,FIX,1615230859.2609198,1615230859.26025,1615230862.3449302,3,2,4,low_cue,1615230998.6872098,1615230998.67949,398.710291862488,3,1615230599.97019,high_stim,pain,1615230599.9692,1,10,68
1615230869.2649,1.9810931682586699,1615230869.26403,1615230875.2878098,1.86215782165527,1615230875.28296,1615230886.15482,9.491393327713011,1615230886.1537302,1615230863.2868,4.966777324676509,1615230863.27844,0.0517699718475342,1615230868.26422,h050.png,1615230868.26365,high_cue,1.5712809562683099,41.536756017283004,FIX,1615230871.26531,1615230871.26478,1615230872.83606,0,0,0,,,,0,0,Command Recieved: TRIGGER_AND_Response: RESULT_OK,,,1615230877.19764,1615230877.1973698,high_stim,2.13437032699585,38.2996886750336,FIX,1615230895.6578,1615230895.65731,1615230897.79168,6,2,4,high_cue,1615230998.6872098,1615230998.67949,398.710291862488,3,1615230599.97019,high_stim,pain,1615230599.9692,1,10,69
1615230902.86106,1.28509306907654,1615230902.8600302,1615230908.17991,6.26642394065857,1615230908.1787,1615230923.4536,4.1939959526062,1615230923.45112,1615230899.68688,2.16972875595093,1615230899.6754901,0.0437037944793701,1615230901.86084,l017.png,1615230901.85965,low_cue,2.06755495071411,5.049166467582861,FIX,1615230904.16084,1615230904.1605198,1615230906.22807,0,0,0,,,,0,0,Command Recieved: TRIGGER_AND_Response: RESULT_OK,,,1615230914.4895198,1615230914.48929,med_stim,3.1513702869415297,38.9136486544172,FIX,1615230927.65301,1615230927.65271,1615230930.80408,2,2,4,low_cue,1615230998.6872098,1615230998.67949,398.710291862488,3,1615230599.97019,med_stim,pain,1615230599.9692,1,10,70
1615230934.8568802,1.9896969795227097,1615230934.8554199,1615230940.8752599,6.2707617282867405,1615230940.8743598,1615230956.16487,5.3816621303558305,1615230956.16346,1615230931.67185,2.17432332038879,1615230931.67089,0.0364170074462891,1615230933.85608,h003.png,1615230933.85504,high_cue,1.68416428565979,53.9557649969273,FIX,1615230936.85643,1615230936.8561802,1615230938.54034,0,0,0,,,,0,0,Command Recieved: TRIGGER_AND_Response: RESULT_OK,,,1615230947.18261,1615230947.18207,med_stim,2.03754854202271,27.081215406842798,FIX,1615230961.56603,1615230961.56549,1615230963.60304,5,2,4,high_cue,1615230998.6872098,1615230998.67949,398.710291862488,3,1615230599.97019,med_stim,pain,1615230599.9692,1,10,71
1615230973.45425,1.9918096065521202,1615230973.45331,1615230979.4733,1.87287282943726,1615230979.47225,1615230990.3607,4.2854335308075,1615230990.35969,1615230965.58673,6.86154508590698,1615230965.5836802,0.065885066986084,1615230972.45431,l039.png,1615230972.45293,low_cue,3.10138368606567,39.2072035049678,FIX,1615230975.45424,1615230975.45406,1615230978.55545,0,0,0,,,,0,0,Command Recieved: TRIGGER_AND_Response: RESULT_OK,,,1615230981.41169,1615230981.41147,low_stim,2.2511293888092,17.998694973021603,FIX,1615230994.6615,1615230994.66131,1615230996.91244,1,2,4,low_cue,1615230998.6872098,1615230998.67949,398.710291862488,3,1615230599.97019,low_stim,pain,1615230599.9692,1,10,72
