onset	duration	trial_type	trial_index	cue	stimulusintensity	rating_value	rating_glmslabel	rating_value_fillna	rating_glmslabel_fillna	rating_mouseonset	rating_mousedur	stim_file	correct_response	participant_response	response_accuracy
10.98	0.99	cue	1	low_cue	n/a	n/a	n/a	n/a	n/a	n/a	n/a	l053.png	n/a	n/a	n/a
51.48	0.99	cue	2	low_cue	n/a	n/a	n/a	n/a	n/a	n/a	n/a	l037.png	n/a	n/a	n/a
82.99	0.98	cue	3	high_cue	n/a	n/a	n/a	n/a	n/a	n/a	n/a	h015.png	n/a	n/a	n/a
117.18	0.99	cue	4	high_cue	n/a	n/a	n/a	n/a	n/a	n/a	n/a	h050.png	n/a	n/a	n/a
150.48	0.99	cue	5	high_cue	n/a	n/a	n/a	n/a	n/a	n/a	n/a	h009.png	n/a	n/a	n/a
185.08	0.99	cue	6	low_cue	n/a	n/a	n/a	n/a	n/a	n/a	n/a	l012.png	n/a	n/a	n/a
213.19	0.98	cue	7	low_cue	n/a	n/a	n/a	n/a	n/a	n/a	n/a	l046.png	n/a	n/a	n/a
244.28	0.99	cue	8	high_cue	n/a	n/a	n/a	n/a	n/a	n/a	n/a	h032.png	n/a	n/a	n/a
270.37	1.0	cue	9	high_cue	n/a	n/a	n/a	n/a	n/a	n/a	n/a	h011.png	n/a	n/a	n/a
304.09	0.98	cue	10	low_cue	n/a	n/a	n/a	n/a	n/a	n/a	n/a	l050.png	n/a	n/a	n/a
338.08	0.99	cue	11	low_cue	n/a	n/a	n/a	n/a	n/a	n/a	n/a	l021.png	n/a	n/a	n/a
376.08	0.99	cue	12	high_cue	n/a	n/a	n/a	n/a	n/a	n/a	n/a	h017.png	n/a	n/a	n/a
14.29	2.3	expectrating	1	low_cue	n/a	15.58	Moderate	15.58	Moderate	0.33	1.97	l053.png	n/a	n/a	n/a
53.69	1.77	expectrating	2	low_cue	n/a	63.33	Strong	63.33	Strong	0.13	1.63	l037.png	n/a	n/a	n/a
85.79	2.07	expectrating	3	high_cue	n/a	91.41	Very Strong	91.41	Very Strong	0.45	1.62	h015.png	n/a	n/a	n/a
119.28	2.62	expectrating	4	high_cue	n/a	94.13	Very Strong	94.13	Very Strong	0.75	1.87	h050.png	n/a	n/a	n/a
152.7	2.98	expectrating	5	high_cue	n/a	71.49	Very Strong	71.49	Very Strong	0.68	2.3	h009.png	n/a	n/a	n/a
187.08	1.63	expectrating	6	low_cue	n/a	32.01	Strong	32.01	Strong	0.5	1.13	l012.png	n/a	n/a	n/a
216.49	2.65	expectrating	7	low_cue	n/a	31.04	Strong	31.04	Strong	0.38	2.27	l046.png	n/a	n/a	n/a
247.28	2.56	expectrating	8	high_cue	n/a	85.16	Very Strong	85.16	Very Strong	0.53	2.03	h032.png	n/a	n/a	n/a
272.39	2.53	expectrating	9	high_cue	n/a	87.51	Very Strong	87.51	Very Strong	0.33	2.2	h011.png	n/a	n/a	n/a
306.29		expectrating	10	low_cue	n/a			19.17	Moderate	0.93	3.77	l050.png	n/a	n/a	n/a
340.28	2.79	expectrating	11	low_cue	n/a	14.32	Moderate	14.32	Moderate	0.55	2.24	l021.png	n/a	n/a	n/a
378.88	2.11	expectrating	12	high_cue	n/a	72.01	Very Strong	72.01	Very Strong	0.65	1.46	h017.png	n/a	n/a	n/a
32.49	7.0	stimulus	1	low_cue	med_stim	n/a	n/a	n/a	n/a	n/a	n/a	43_100.jpg	same		False
62.38	7.0	stimulus	2	low_cue	high_stim	n/a	n/a	n/a	n/a	n/a	n/a	18_150.jpg	same	diff	False
92.49	6.99	stimulus	3	high_cue	low_stim	n/a	n/a	n/a	n/a	n/a	n/a	35_50.jpg	same	same	True
132.79	6.99	stimulus	4	high_cue	med_stim	n/a	n/a	n/a	n/a	n/a	n/a	5_100.jpg	same	same	True
170.89	7.0	stimulus	5	high_cue	high_stim	n/a	n/a	n/a	n/a	n/a	n/a	11_150_R.jpg	diff	diff	True
195.58	7.0	stimulus	6	low_cue	high_stim	n/a	n/a	n/a	n/a	n/a	n/a	29_150_R.jpg	diff	same	False
224.99	6.99	stimulus	7	low_cue	low_stim	n/a	n/a	n/a	n/a	n/a	n/a	44_50_R.jpg	diff	diff	True
253.98	7.0	stimulus	8	high_cue	high_stim	n/a	n/a	n/a	n/a	n/a	n/a	47_150_R.jpg	diff		False
281.68	7.0	stimulus	9	high_cue	low_stim	n/a	n/a	n/a	n/a	n/a	n/a	44_50.jpg	same	same	True
313.59	6.99	stimulus	10	low_cue	med_stim	n/a	n/a	n/a	n/a	n/a	n/a	44_100_R.jpg	diff	diff	True
352.19	7.0	stimulus	11	low_cue	low_stim	n/a	n/a	n/a	n/a	n/a	n/a	29_50_R.jpg	diff	same	False
387.38	7.0	stimulus	12	high_cue	med_stim	n/a	n/a	n/a	n/a	n/a	n/a	42_100.jpg	same		False
45.29	1.97	outcomerating	1	low_cue	med_stim	84.7	Very Strong	84.7	Very Strong	0.62	1.35	task-cognitive_scale.png	n/a	n/a	n/a
75.18	2.97	outcomerating	2	low_cue	high_stim	24.5	Moderate	24.5	Moderate	0.62	2.36	task-cognitive_scale.png	n/a	n/a	n/a
100.38	2.57	outcomerating	3	high_cue	low_stim	56.64	Strong	56.64	Strong	0.52	2.05	task-cognitive_scale.png	n/a	n/a	n/a
145.58	2.82	outcomerating	4	high_cue	med_stim	74.95	Very Strong	74.95	Very Strong	0.73	2.08	task-cognitive_scale.png	n/a	n/a	n/a
179.59	2.6	outcomerating	5	high_cue	high_stim	74.79	Very Strong	74.79	Very Strong	0.42	2.18	task-cognitive_scale.png	n/a	n/a	n/a
204.28	3.98	outcomerating	6	low_cue	high_stim	10.09	Moderate	10.09	Moderate	0.77	3.21	task-cognitive_scale.png	n/a	n/a	n/a
238.1	1.82	outcomerating	7	low_cue	low_stim	3.68	Weak	3.68	Weak	0.55	1.27	task-cognitive_scale.png	n/a	n/a	n/a
262.99	3.84	outcomerating	8	high_cue	high_stim	87.13	Very Strong	87.13	Very Strong	0.63	3.2	task-cognitive_scale.png	n/a	n/a	n/a
298.58	2.17	outcomerating	9	high_cue	low_stim	41.25	Strong	41.25	Strong	0.67	1.51	task-cognitive_scale.png	n/a	n/a	n/a
329.8	1.92	outcomerating	10	low_cue	med_stim	6.29	Weak	6.29	Weak	0.57	1.35	task-cognitive_scale.png	n/a	n/a	n/a
363.89	2.52	outcomerating	11	low_cue	low_stim	13.42	Moderate	13.42	Moderate	0.78	1.73	task-cognitive_scale.png	n/a	n/a	n/a
394.99	2.65	outcomerating	12	high_cue	med_stim	98.82	Strongest sensation of any kind	98.82	Strongest sensation of any kind	0.05	2.6	task-cognitive_scale.png	n/a	n/a	n/a
