onset	duration	trial_type	trial_index	cue	stimulusintensity	rating_value	rating_glmslabel	rating_value_fillna	rating_glmslabel_fillna	rating_mouseonset	rating_mousedur	stim_file	onset_ttl1	onset_ttl2	onset_ttl3	onset_ttl4	stimulus_delivery_success
4.11	1.02	cue	1	high_cue	n/a	n/a	n/a	n/a	n/a	n/a	n/a	h010.png	n/a	n/a	n/a	n/a	n/a
33.5	1.0	cue	2	low_cue	n/a	n/a	n/a	n/a	n/a	n/a	n/a	l047.png	n/a	n/a	n/a	n/a	n/a
71.6	1.0	cue	3	high_cue	n/a	n/a	n/a	n/a	n/a	n/a	n/a	h036.png	n/a	n/a	n/a	n/a	n/a
105.6	1.0	cue	4	high_cue	n/a	n/a	n/a	n/a	n/a	n/a	n/a	h026.png	n/a	n/a	n/a	n/a	n/a
132.81	1.0	cue	5	high_cue	n/a	n/a	n/a	n/a	n/a	n/a	n/a	h038.png	n/a	n/a	n/a	n/a	n/a
163.3	1.0	cue	6	high_cue	n/a	n/a	n/a	n/a	n/a	n/a	n/a	h037.png	n/a	n/a	n/a	n/a	n/a
196.9	1.0	cue	7	low_cue	n/a	n/a	n/a	n/a	n/a	n/a	n/a	l030.png	n/a	n/a	n/a	n/a	n/a
231.39	1.0	cue	8	low_cue	n/a	n/a	n/a	n/a	n/a	n/a	n/a	l045.png	n/a	n/a	n/a	n/a	n/a
270.41	0.98	cue	9	high_cue	n/a	n/a	n/a	n/a	n/a	n/a	n/a	h004.png	n/a	n/a	n/a	n/a	n/a
297.7	1.0	cue	10	low_cue	n/a	n/a	n/a	n/a	n/a	n/a	n/a	l009.png	n/a	n/a	n/a	n/a	n/a
327.2	1.0	cue	11	low_cue	n/a	n/a	n/a	n/a	n/a	n/a	n/a	l049.png	n/a	n/a	n/a	n/a	n/a
372.6	1.0	cue	12	low_cue	n/a	n/a	n/a	n/a	n/a	n/a	n/a	l026.png	n/a	n/a	n/a	n/a	n/a
7.24	1.51	expectrating	1	high_cue	n/a	59.63	Strong	59.63	Strong	0.45	1.06	h010.png	n/a	n/a	n/a	n/a	n/a
36.6	1.72	expectrating	2	low_cue	n/a	17.56	Moderate	17.56	Moderate	0.45	1.27	l047.png	n/a	n/a	n/a	n/a	n/a
73.62	2.32	expectrating	3	high_cue	n/a	71.06	Very Strong	71.06	Very Strong	0.85	1.47	h036.png	n/a	n/a	n/a	n/a	n/a
108.7	0.94	expectrating	4	high_cue	n/a	65.99	Very Strong	65.99	Very Strong	0.22	0.72	h026.png	n/a	n/a	n/a	n/a	n/a
135.91	1.68	expectrating	5	high_cue	n/a	56.44	Strong	56.44	Strong	0.4	1.28	h038.png	n/a	n/a	n/a	n/a	n/a
165.32	1.28	expectrating	6	high_cue	n/a	50.19	Strong	50.19	Strong	0.5	0.78	h037.png	n/a	n/a	n/a	n/a	n/a
199.3	1.54	expectrating	7	low_cue	n/a	18.73	Moderate	18.73	Moderate	0.35	1.19	l030.png	n/a	n/a	n/a	n/a	n/a
234.31	1.41	expectrating	8	low_cue	n/a	57.97	Strong	57.97	Strong	0.25	1.16	l045.png	n/a	n/a	n/a	n/a	n/a
272.21	1.68	expectrating	9	high_cue	n/a	53.55	Strong	53.55	Strong	0.07	1.62	h004.png	n/a	n/a	n/a	n/a	n/a
300.2	1.6	expectrating	10	low_cue	n/a	29.46	Strong	29.46	Strong	0.32	1.28	l009.png	n/a	n/a	n/a	n/a	n/a
329.1	2.79	expectrating	11	low_cue	n/a	26.46	Moderate	26.46	Moderate	0.85	1.94	l049.png	n/a	n/a	n/a	n/a	n/a
374.6	2.31	expectrating	12	low_cue	n/a	25.11	Moderate	25.11	Moderate	0.47	1.84	l026.png	n/a	n/a	n/a	n/a	n/a
12.57	12.27	stimulus	1	high_cue	med_stim	n/a	n/a	n/a	n/a	n/a	n/a	49c	12.58	16.44	21.44	24.86	success
47.55	11.82	stimulus	2	low_cue	low_stim	n/a	n/a	n/a	n/a	n/a	n/a	48c	47.59	51.19	56.19	59.41	success
84.53	11.81	stimulus	3	high_cue	low_stim	n/a	n/a	n/a	n/a	n/a	n/a	48c	84.57	88.15	93.15	96.38	success
117.94	12.78	stimulus	4	high_cue	high_stim	n/a	n/a	n/a	n/a	n/a	n/a	50c	117.98	122.09	127.09	130.76	success
141.24	11.74	stimulus	5	high_cue	low_stim	n/a	n/a	n/a	n/a	n/a	n/a	48c	141.28	144.75	149.75	153.02	success
174.53	12.25	stimulus	6	high_cue	med_stim	n/a	n/a	n/a	n/a	n/a	n/a	49c	174.57	178.36	183.36	186.82	success
205.94	12.74	stimulus	7	low_cue	high_stim	n/a	n/a	n/a	n/a	n/a	n/a	50c	205.98	210.04	215.04	218.72	success
240.95	12.29	stimulus	8	low_cue	med_stim	n/a	n/a	n/a	n/a	n/a	n/a	49c	240.99	244.81	249.81	253.29	success
278.85	12.79	stimulus	9	high_cue	high_stim	n/a	n/a	n/a	n/a	n/a	n/a	50c	278.9	283.0	288.01	291.69	success
306.33	12.3	stimulus	10	low_cue	med_stim	n/a	n/a	n/a	n/a	n/a	n/a	49c	306.38	310.17	315.17	318.67	success
344.65	11.81	stimulus	11	low_cue	low_stim	n/a	n/a	n/a	n/a	n/a	n/a	48c	344.68	348.22	353.22	356.5	success
384.42	12.75	stimulus	12	low_cue	high_stim	n/a	n/a	n/a	n/a	n/a	n/a	50c	384.46	388.55	393.55	397.22	success
23.7	1.75	outcomerating	1	high_cue	med_stim	43.37	Strong	43.37	Strong	0.62	1.14	task-pain_scale.png	n/a	n/a	n/a	n/a	success
62.4	2.79	outcomerating	2	low_cue	low_stim	23.26	Moderate	23.26	Moderate	0.53	2.26	task-pain_scale.png	n/a	n/a	n/a	n/a	success
97.11	2.37	outcomerating	3	high_cue	low_stim	25.93	Moderate	25.93	Moderate	0.87	1.5	task-pain_scale.png	n/a	n/a	n/a	n/a	success
127.51	1.38	outcomerating	4	high_cue	high_stim	73.93	Very Strong	73.93	Very Strong	0.75	0.63	task-pain_scale.png	n/a	n/a	n/a	n/a	success
152.41	2.01	outcomerating	5	high_cue	low_stim	17.54	Moderate	17.54	Moderate	0.73	1.27	task-pain_scale.png	n/a	n/a	n/a	n/a	success
184.51	2.3	outcomerating	6	high_cue	med_stim	43.05	Strong	43.05	Strong	0.43	1.87	task-pain_scale.png	n/a	n/a	n/a	n/a	success
224.41	2.55	outcomerating	7	low_cue	high_stim	49.22	Strong	49.22	Strong	0.58	1.97	task-pain_scale.png	n/a	n/a	n/a	n/a	success
257.0	2.53	outcomerating	8	low_cue	med_stim	37.19	Strong	37.19	Strong	0.83	1.7	task-pain_scale.png	n/a	n/a	n/a	n/a	success
292.4	1.45	outcomerating	9	high_cue	high_stim	51.71	Strong	51.71	Strong	0.43	1.02	task-pain_scale.png	n/a	n/a	n/a	n/a	success
318.01	2.22	outcomerating	10	low_cue	med_stim	28.11	Moderate	28.11	Moderate	0.45	1.77	task-pain_scale.png	n/a	n/a	n/a	n/a	success
367.01	2.32	outcomerating	11	low_cue	low_stim	9.46	Weak	9.46	Weak	0.2	2.12	task-pain_scale.png	n/a	n/a	n/a	n/a	success
394.4	3.3	outcomerating	12	low_cue	high_stim	42.0	Strong	42.0	Strong	0.87	2.43	task-pain_scale.png	n/a	n/a	n/a	n/a	success
