onset	duration	trial_type	trial_index	cue	stimulusintensity	rating_value	rating_glmslabel	rating_value_fillna	rating_glmslabel_fillna	rating_mouseonset	rating_mousedur	stim_file
10.08	0.99	cue	1	high_cue	n/a	n/a	n/a	n/a	n/a	n/a	n/a	h011.png
36.29	0.98	cue	2	high_cue	n/a	n/a	n/a	n/a	n/a	n/a	n/a	h028.png
68.38	0.99	cue	3	low_cue	n/a	n/a	n/a	n/a	n/a	n/a	n/a	l044.png
103.08	0.99	cue	4	high_cue	n/a	n/a	n/a	n/a	n/a	n/a	n/a	h030.png
139.58	0.99	cue	5	high_cue	n/a	n/a	n/a	n/a	n/a	n/a	n/a	h014.png
175.69	0.98	cue	6	low_cue	n/a	n/a	n/a	n/a	n/a	n/a	n/a	l031.png
203.08	0.99	cue	7	high_cue	n/a	n/a	n/a	n/a	n/a	n/a	n/a	h045.png
235.78	0.99	cue	8	high_cue	n/a	n/a	n/a	n/a	n/a	n/a	n/a	h007.png
262.79	0.98	cue	9	low_cue	n/a	n/a	n/a	n/a	n/a	n/a	n/a	l014.png
294.58	0.99	cue	10	low_cue	n/a	n/a	n/a	n/a	n/a	n/a	n/a	l019.png
332.98	0.99	cue	11	low_cue	n/a	n/a	n/a	n/a	n/a	n/a	n/a	l027.png
372.28	0.99	cue	12	low_cue	n/a	n/a	n/a	n/a	n/a	n/a	n/a	l010.png
12.4	1.48	expectrating	1	high_cue	n/a	51.41	Strong	51.41	Strong	0.28	1.2	h011.png
39.19	1.87	expectrating	2	high_cue	n/a	34.46	Strong	34.46	Strong	0.07	1.8	h028.png
71.28	2.02	expectrating	3	low_cue	n/a	15.82	Moderate	15.82	Moderate	0.6	1.42	l044.png
105.98	2.3	expectrating	4	high_cue	n/a	58.6	Strong	58.6	Strong	0.37	1.93	h030.png
141.69	1.68	expectrating	5	high_cue	n/a	51.52	Strong	51.52	Strong	0.05	1.63	h014.png
178.49	2.55	expectrating	6	low_cue	n/a	26.67	Moderate	26.67	Moderate	0.7	1.85	l031.png
205.38	1.51	expectrating	7	high_cue	n/a	80.27	Very Strong	80.27	Very Strong	0.05	1.46	h045.png
237.78	2.58	expectrating	8	high_cue	n/a	57.26	Strong	57.26	Strong	0.7	1.88	h007.png
264.99	2.69	expectrating	9	low_cue	n/a	31.08	Strong	31.08	Strong	0.12	2.57	l014.png
297.49	1.94	expectrating	10	low_cue	n/a	23.56	Moderate	23.56	Moderate	0.05	1.89	l019.png
335.58	1.49	expectrating	11	low_cue	n/a	24.29	Moderate	24.29	Moderate	0.7	0.79	l027.png
374.28	1.95	expectrating	12	low_cue	n/a	23.59	Moderate	23.59	Moderate	0.4	1.55	l010.png
20.17	7.01	stimulus	1	high_cue	med_stim	n/a	n/a	n/a	n/a	n/a	n/a	kz120t2aeaff_M.mp4
47.47	7.0	stimulus	2	high_cue	low_stim	n/a	n/a	n/a	n/a	n/a	n/a	jh123t1aaunaff_L.mp4
80.47	7.0	stimulus	3	low_cue	med_stim	n/a	n/a	n/a	n/a	n/a	n/a	jh123t2aaaff_M.mp4
115.17	7.01	stimulus	4	high_cue	high_stim	n/a	n/a	n/a	n/a	n/a	n/a	mg101t2aeaff_H.mp4
159.77	7.01	stimulus	5	high_cue	high_stim	n/a	n/a	n/a	n/a	n/a	n/a	jh123t1aeaff_H.mp4
187.67	7.01	stimulus	6	low_cue	high_stim	n/a	n/a	n/a	n/a	n/a	n/a	kz120t2aaaff_H.mp4
217.57	7.0	stimulus	7	high_cue	med_stim	n/a	n/a	n/a	n/a	n/a	n/a	bg096t2aaaff_M.mp4
245.27	7.01	stimulus	8	high_cue	low_stim	n/a	n/a	n/a	n/a	n/a	n/a	hs107t2aeunaff_L.mp4
272.77	7.01	stimulus	9	low_cue	high_stim	n/a	n/a	n/a	n/a	n/a	n/a	hs107t1afaff_H.mp4
308.87	7.0	stimulus	10	low_cue	low_stim	n/a	n/a	n/a	n/a	n/a	n/a	bg096t2afunaff_L.mp4
353.67	7.0	stimulus	11	low_cue	low_stim	n/a	n/a	n/a	n/a	n/a	n/a	mg101t2afunaff_L.mp4
381.37	7.01	stimulus	12	low_cue	med_stim	n/a	n/a	n/a	n/a	n/a	n/a	mg101t2aeunaff_M.mp4
31.49	1.61	outcomerating	1	high_cue	med_stim	15.69	Moderate	15.69	Moderate	0.38	1.22	task-vicarious_scale.png
55.8	1.23	outcomerating	2	high_cue	low_stim	20.28	Moderate	20.28	Moderate	0.48	0.75	task-vicarious_scale.png
96.39	3.38	outcomerating	3	low_cue	med_stim	11.81	Moderate	11.81	Moderate	0.43	2.95	task-vicarious_scale.png
126.99	2.67	outcomerating	4	high_cue	high_stim	60.63	Strong	60.63	Strong	0.65	2.02	task-vicarious_scale.png
169.69	2.7	outcomerating	5	high_cue	high_stim	40.45	Strong	40.45	Strong	0.92	1.79	task-vicarious_scale.png
196.0	2.78	outcomerating	6	low_cue	high_stim	11.08	Moderate	11.08	Moderate	0.43	2.35	task-vicarious_scale.png
229.99	1.97	outcomerating	7	high_cue	med_stim	78.78	Very Strong	78.78	Very Strong	0.05	1.92	task-vicarious_scale.png
256.99	3.54	outcomerating	8	high_cue	low_stim	21.2	Moderate	21.2	Moderate	0.52	3.02	task-vicarious_scale.png
289.8	1.98	outcomerating	9	low_cue	high_stim	52.35	Strong	52.35	Strong	0.62	1.37	task-vicarious_scale.png
318.79	1.68	outcomerating	10	low_cue	low_stim	26.67	Moderate	26.67	Moderate	0.12	1.57	task-vicarious_scale.png
361.99	1.8	outcomerating	11	low_cue	low_stim	17.34	Moderate	17.34	Moderate	0.38	1.42	task-vicarious_scale.png
394.79	2.27	outcomerating	12	low_cue	med_stim	35.36	Strong	35.36	Strong	0.65	1.62	task-vicarious_scale.png
