onset	duration	trial_type	trial_index	cue	stimulusintensity	rating_value	rating_glmslabel	rating_value_fillna	rating_glmslabel_fillna	rating_mouseonset	rating_mousedur	stim_file	onset_ttl1	onset_ttl2	onset_ttl3	onset_ttl4	stimulus_delivery_success
5.71	0.98	cue	1	low_cue	n/a	n/a	n/a	n/a	n/a	n/a	n/a	l021.png	n/a	n/a	n/a	n/a	n/a
33.4	1.0	cue	2	low_cue	n/a	n/a	n/a	n/a	n/a	n/a	n/a	l014.png	n/a	n/a	n/a	n/a	n/a
71.1	1.0	cue	3	low_cue	n/a	n/a	n/a	n/a	n/a	n/a	n/a	l023.png	n/a	n/a	n/a	n/a	n/a
100.7	1.0	cue	4	high_cue	n/a	n/a	n/a	n/a	n/a	n/a	n/a	h043.png	n/a	n/a	n/a	n/a	n/a
135.81	1.0	cue	5	high_cue	n/a	n/a	n/a	n/a	n/a	n/a	n/a	h018.png	n/a	n/a	n/a	n/a	n/a
170.6	1.0	cue	6	high_cue	n/a	n/a	n/a	n/a	n/a	n/a	n/a	h014.png	n/a	n/a	n/a	n/a	n/a
196.9	1.0	cue	7	high_cue	n/a	n/a	n/a	n/a	n/a	n/a	n/a	h001.png	n/a	n/a	n/a	n/a	n/a
237.0	1.0	cue	8	low_cue	n/a	n/a	n/a	n/a	n/a	n/a	n/a	l012.png	n/a	n/a	n/a	n/a	n/a
268.31	1.0	cue	9	high_cue	n/a	n/a	n/a	n/a	n/a	n/a	n/a	h050.png	n/a	n/a	n/a	n/a	n/a
301.9	1.0	cue	10	low_cue	n/a	n/a	n/a	n/a	n/a	n/a	n/a	l017.png	n/a	n/a	n/a	n/a	n/a
333.9	1.0	cue	11	high_cue	n/a	n/a	n/a	n/a	n/a	n/a	n/a	h003.png	n/a	n/a	n/a	n/a	n/a
372.5	1.0	cue	12	low_cue	n/a	n/a	n/a	n/a	n/a	n/a	n/a	l039.png	n/a	n/a	n/a	n/a	n/a
7.74	3.32	expectrating	1	low_cue	n/a	48.58	Strong	48.58	Strong	0.5	2.82	l021.png	n/a	n/a	n/a	n/a	n/a
35.7	1.57	expectrating	2	low_cue	n/a	56.76	Strong	56.76	Strong	0.05	1.52	l014.png	n/a	n/a	n/a	n/a	n/a
73.42	2.37	expectrating	3	low_cue	n/a	29.35	Strong	29.35	Strong	0.27	2.11	l023.png	n/a	n/a	n/a	n/a	n/a
103.51	1.75	expectrating	4	high_cue	n/a	102.3	Strongest sensation of any kind	102.3	Strongest sensation of any kind	0.25	1.5	h043.png	n/a	n/a	n/a	n/a	n/a
137.51	1.93	expectrating	5	high_cue	n/a	102.73	Strongest sensation of any kind	102.73	Strongest sensation of any kind	0.62	1.32	h018.png	n/a	n/a	n/a	n/a	n/a
172.41	2.22	expectrating	6	high_cue	n/a	99.34	Strongest sensation of any kind	99.34	Strongest sensation of any kind	0.5	1.72	h014.png	n/a	n/a	n/a	n/a	n/a
199.9	1.42	expectrating	7	high_cue	n/a	113.77	Strongest sensation of any kind	113.77	Strongest sensation of any kind	0.38	1.03	h001.png	n/a	n/a	n/a	n/a	n/a
239.7	1.88	expectrating	8	low_cue	n/a	39.92	Strong	39.92	Strong	0.27	1.62	l012.png	n/a	n/a	n/a	n/a	n/a
271.31	1.82	expectrating	9	high_cue	n/a	116.77	Strongest sensation of any kind	116.77	Strongest sensation of any kind	0.17	1.65	h050.png	n/a	n/a	n/a	n/a	n/a
304.2	1.87	expectrating	10	low_cue	n/a	62.61	Strong	62.61	Strong	0.38	1.49	l017.png	n/a	n/a	n/a	n/a	n/a
336.9	1.48	expectrating	11	high_cue	n/a	113.89	Strongest sensation of any kind	113.89	Strongest sensation of any kind	0.33	1.14	h003.png	n/a	n/a	n/a	n/a	n/a
375.5	1.48	expectrating	12	low_cue	n/a	55.22	Strong	55.22	Strong	0.45	1.03	l039.png	n/a	n/a	n/a	n/a	n/a
13.78	26.14	stimulus	1	low_cue	med_stim	n/a	n/a	n/a	n/a	n/a	n/a	49c	13.78	17.54	22.54	26.15	success
44.53	56.44	stimulus	2	low_cue	low_stim	n/a	n/a	n/a	n/a	n/a	n/a	48c	44.53	48.03	53.03	56.43	success
82.26	95.08	stimulus	3	low_cue	high_stim	n/a	n/a	n/a	n/a	n/a	n/a	50c	82.26	86.27	91.27	95.08	success
112.83	124.74	stimulus	4	high_cue	low_stim	n/a	n/a	n/a	n/a	n/a	n/a	48c	112.83	116.33	121.33	124.73	success
147.83	160.2	stimulus	5	high_cue	med_stim	n/a	n/a	n/a	n/a	n/a	n/a	49c	147.83	151.59	156.59	160.2	success
179.06	191.88	stimulus	6	high_cue	high_stim	n/a	n/a	n/a	n/a	n/a	n/a	50c	179.06	183.07	188.07	191.88	success
210.24	222.15	stimulus	7	high_cue	low_stim	n/a	n/a	n/a	n/a	n/a	n/a	48c	210.24	213.74	218.74	222.14	success
249.32	262.14	stimulus	8	low_cue	high_stim	n/a	n/a	n/a	n/a	n/a	n/a	50c	249.32	253.33	258.33	262.14	success
277.23	290.06	stimulus	9	high_cue	high_stim	n/a	n/a	n/a	n/a	n/a	n/a	50c	277.23	281.24	286.24	290.05	success
314.55	326.91	stimulus	10	low_cue	med_stim	n/a	n/a	n/a	n/a	n/a	n/a	49c	314.55	318.31	323.31	326.92	success
347.25	359.61	stimulus	11	high_cue	med_stim	n/a	n/a	n/a	n/a	n/a	n/a	49c	347.25	351.01	356.01	359.62	success
381.44	393.34	stimulus	12	low_cue	low_stim	n/a	n/a	n/a	n/a	n/a	n/a	48c	381.44	384.94	389.94	393.34	success
27.9	2.32	outcomerating	1	low_cue	med_stim	65.8	Very Strong	65.8	Very Strong	1.0	1.32	task-pain_scale.png	n/a	n/a	n/a	n/a	success
55.41	3.23	outcomerating	2	low_cue	low_stim	56.82	Strong	56.82	Strong	0.72	2.52	task-pain_scale.png	n/a	n/a	n/a	n/a	success
93.31	2.75	outcomerating	3	low_cue	high_stim	67.86	Very Strong	67.86	Very Strong	0.13	2.62	task-pain_scale.png	n/a	n/a	n/a	n/a	success
124.7		outcomerating	4	high_cue	low_stim			47.93	Strong	0.8	2.85	task-pain_scale.png	n/a	n/a	n/a	n/a	success
159.7	2.17	outcomerating	5	high_cue	med_stim	86.09	Very Strong	86.09	Very Strong	0.55	1.62	task-pain_scale.png	n/a	n/a	n/a	n/a	success
190.91	1.88	outcomerating	6	high_cue	high_stim	98.59	Strongest sensation of any kind	98.59	Strongest sensation of any kind	0.63	1.25	task-pain_scale.png	n/a	n/a	n/a	n/a	success
231.01	2.0	outcomerating	7	high_cue	low_stim	63.13	Strong	63.13	Strong	0.33	1.67	task-pain_scale.png	n/a	n/a	n/a	n/a	success
259.3	2.47	outcomerating	8	low_cue	high_stim	83.1	Very Strong	83.1	Very Strong	0.57	1.9	task-pain_scale.png	n/a	n/a	n/a	n/a	success
295.7	1.61	outcomerating	9	high_cue	high_stim	106.55	Strongest sensation of any kind	106.55	Strongest sensation of any kind	0.05	1.56	task-pain_scale.png	n/a	n/a	n/a	n/a	success
327.71	2.93	outcomerating	10	low_cue	med_stim	60.17	Strong	60.17	Strong	0.93	2.0	task-pain_scale.png	n/a	n/a	n/a	n/a	success
361.61	2.48	outcomerating	11	high_cue	med_stim	67.64	Very Strong	67.64	Very Strong	0.8	1.68	task-pain_scale.png	n/a	n/a	n/a	n/a	success
394.71	2.22	outcomerating	12	low_cue	low_stim	50.55	Strong	50.55	Strong	0.43	1.79	task-pain_scale.png	n/a	n/a	n/a	n/a	success
