onset	duration	trial_type	trial_index	cue	stimulusintensity	rating_value	rating_glmslabel	rating_value_fillna	rating_glmslabel_fillna	rating_mouseonset	rating_mousedur	stim_file	correct_response	participant_response	response_accuracy
11.0	0.98	cue	1	low_cue	n/a	n/a	n/a	n/a	n/a	n/a	n/a	l053.png	n/a	n/a	n/a
51.5	0.99	cue	2	low_cue	n/a	n/a	n/a	n/a	n/a	n/a	n/a	l037.png	n/a	n/a	n/a
83.0	0.99	cue	3	high_cue	n/a	n/a	n/a	n/a	n/a	n/a	n/a	h015.png	n/a	n/a	n/a
117.19	0.99	cue	4	high_cue	n/a	n/a	n/a	n/a	n/a	n/a	n/a	h050.png	n/a	n/a	n/a
150.5	0.98	cue	5	high_cue	n/a	n/a	n/a	n/a	n/a	n/a	n/a	h009.png	n/a	n/a	n/a
185.1	0.99	cue	6	low_cue	n/a	n/a	n/a	n/a	n/a	n/a	n/a	l012.png	n/a	n/a	n/a
213.19	0.99	cue	7	low_cue	n/a	n/a	n/a	n/a	n/a	n/a	n/a	l046.png	n/a	n/a	n/a
244.29	1.0	cue	8	high_cue	n/a	n/a	n/a	n/a	n/a	n/a	n/a	h032.png	n/a	n/a	n/a
270.4	0.99	cue	9	high_cue	n/a	n/a	n/a	n/a	n/a	n/a	n/a	h011.png	n/a	n/a	n/a
304.09	0.99	cue	10	low_cue	n/a	n/a	n/a	n/a	n/a	n/a	n/a	l050.png	n/a	n/a	n/a
338.09	0.99	cue	11	low_cue	n/a	n/a	n/a	n/a	n/a	n/a	n/a	l021.png	n/a	n/a	n/a
376.1	0.98	cue	12	high_cue	n/a	n/a	n/a	n/a	n/a	n/a	n/a	h017.png	n/a	n/a	n/a
14.34	3.08	expectrating	1	low_cue	n/a	19.55	Moderate	19.55	Moderate	1.48	1.6	l053.png	n/a	n/a	n/a
53.7	2.34	expectrating	2	low_cue	n/a	40.45	Strong	40.45	Strong	0.58	1.75	l037.png	n/a	n/a	n/a
85.81	2.36	expectrating	3	high_cue	n/a	78.28	Very Strong	78.28	Very Strong	0.45	1.91	h015.png	n/a	n/a	n/a
119.31	2.11	expectrating	4	high_cue	n/a	63.23	Strong	63.23	Strong	0.53	1.58	h050.png	n/a	n/a	n/a
152.7	1.6	expectrating	5	high_cue	n/a	50.37	Strong	50.37	Strong	0.6	1.0	h009.png	n/a	n/a	n/a
187.1	2.1	expectrating	6	low_cue	n/a	26.77	Moderate	26.77	Moderate	0.67	1.44	l012.png	n/a	n/a	n/a
216.49	3.83	expectrating	7	low_cue	n/a	23.56	Moderate	23.56	Moderate	0.65	3.18	l046.png	n/a	n/a	n/a
247.31	1.65	expectrating	8	high_cue	n/a	71.57	Very Strong	71.57	Very Strong	0.12	1.53	h032.png	n/a	n/a	n/a
272.4	2.59	expectrating	9	high_cue	n/a	72.56	Very Strong	72.56	Very Strong	0.78	1.8	h011.png	n/a	n/a	n/a
306.29	1.81	expectrating	10	low_cue	n/a	18.51	Moderate	18.51	Moderate	0.13	1.67	l050.png	n/a	n/a	n/a
340.31	2.82	expectrating	11	low_cue	n/a	27.8	Moderate	27.8	Moderate	0.22	2.6	l021.png	n/a	n/a	n/a
378.91	1.87	expectrating	12	high_cue	n/a	74.93	Very Strong	74.93	Very Strong	0.47	1.4	h017.png	n/a	n/a	n/a
32.51	6.99	stimulus	1	low_cue	med_stim	n/a	n/a	n/a	n/a	n/a	n/a	43_100.jpg	same	diff	False
62.4	7.0	stimulus	2	low_cue	high_stim	n/a	n/a	n/a	n/a	n/a	n/a	18_150.jpg	same	same	True
92.5	7.0	stimulus	3	high_cue	low_stim	n/a	n/a	n/a	n/a	n/a	n/a	35_50.jpg	same	same	True
132.8	7.0	stimulus	4	high_cue	med_stim	n/a	n/a	n/a	n/a	n/a	n/a	5_100.jpg	same	same	True
170.91	6.99	stimulus	5	high_cue	high_stim	n/a	n/a	n/a	n/a	n/a	n/a	11_150_R.jpg	diff	diff	True
195.6	7.0	stimulus	6	low_cue	high_stim	n/a	n/a	n/a	n/a	n/a	n/a	29_150_R.jpg	diff	diff	True
225.0	7.0	stimulus	7	low_cue	low_stim	n/a	n/a	n/a	n/a	n/a	n/a	44_50_R.jpg	diff	diff	True
253.99	7.0	stimulus	8	high_cue	high_stim	n/a	n/a	n/a	n/a	n/a	n/a	47_150_R.jpg	diff	same	False
281.7	7.0	stimulus	9	high_cue	low_stim	n/a	n/a	n/a	n/a	n/a	n/a	44_50.jpg	same	same	True
313.6	7.0	stimulus	10	low_cue	med_stim	n/a	n/a	n/a	n/a	n/a	n/a	44_100_R.jpg	diff	same	False
352.2	7.0	stimulus	11	low_cue	low_stim	n/a	n/a	n/a	n/a	n/a	n/a	29_50_R.jpg	diff	diff	True
387.39	7.0	stimulus	12	high_cue	med_stim	n/a	n/a	n/a	n/a	n/a	n/a	42_100.jpg	same	same	True
45.3		outcomerating	1	low_cue	med_stim			24.5	Moderate	0.27	3.52	task-cognitive_scale.png	n/a	n/a	n/a
75.21	2.13	outcomerating	2	low_cue	high_stim	18.73	Moderate	18.73	Moderate	0.2	1.93	task-cognitive_scale.png	n/a	n/a	n/a
100.4	3.34	outcomerating	3	high_cue	low_stim	7.83	Weak	7.83	Weak	0.87	2.47	task-cognitive_scale.png	n/a	n/a	n/a
145.6	2.55	outcomerating	4	high_cue	med_stim	42.71	Strong	42.71	Strong	0.18	2.37	task-cognitive_scale.png	n/a	n/a	n/a
179.6	3.31	outcomerating	5	high_cue	high_stim	59.12	Strong	59.12	Strong	1.12	2.19	task-cognitive_scale.png	n/a	n/a	n/a
204.31	2.02	outcomerating	6	low_cue	high_stim	31.45	Strong	31.45	Strong	0.72	1.3	task-cognitive_scale.png	n/a	n/a	n/a
238.1	3.08	outcomerating	7	low_cue	low_stim	19.1	Moderate	19.1	Moderate	0.05	3.03	task-cognitive_scale.png	n/a	n/a	n/a
263.0	2.62	outcomerating	8	high_cue	high_stim	32.92	Strong	32.92	Strong	0.07	2.56	task-cognitive_scale.png	n/a	n/a	n/a
298.59	3.95	outcomerating	9	high_cue	low_stim	12.08	Moderate	12.08	Moderate	0.07	3.88	task-cognitive_scale.png	n/a	n/a	n/a
329.8	2.52	outcomerating	10	low_cue	med_stim	77.02	Very Strong	77.02	Very Strong	0.75	1.77	task-cognitive_scale.png	n/a	n/a	n/a
363.9	3.59	outcomerating	11	low_cue	low_stim	13.87	Moderate	13.87	Moderate	0.63	2.95	task-cognitive_scale.png	n/a	n/a	n/a
394.99	2.88	outcomerating	12	high_cue	med_stim	37.79	Strong	37.79	Strong	0.48	2.4	task-cognitive_scale.png	n/a	n/a	n/a
