onset	duration	trial_type	trial_index	cue	stimulusintensity	rating_value	rating_glmslabel	rating_value_fillna	rating_glmslabel_fillna	rating_mouseonset	rating_mousedur	stim_file
9.79	0.99	cue	1	high_cue	n/a	n/a	n/a	n/a	n/a	n/a	n/a	h025.png
41.5	0.98	cue	2	high_cue	n/a	n/a	n/a	n/a	n/a	n/a	n/a	h050.png
67.39	0.99	cue	3	low_cue	n/a	n/a	n/a	n/a	n/a	n/a	n/a	l047.png
96.79	0.99	cue	4	high_cue	n/a	n/a	n/a	n/a	n/a	n/a	n/a	h012.png
128.4	0.98	cue	5	high_cue	n/a	n/a	n/a	n/a	n/a	n/a	n/a	h045.png
171.0	0.98	cue	6	low_cue	n/a	n/a	n/a	n/a	n/a	n/a	n/a	l030.png
198.29	0.99	cue	7	low_cue	n/a	n/a	n/a	n/a	n/a	n/a	n/a	l032.png
234.89	0.99	cue	8	low_cue	n/a	n/a	n/a	n/a	n/a	n/a	n/a	l033.png
262.2	0.98	cue	9	high_cue	n/a	n/a	n/a	n/a	n/a	n/a	n/a	h001.png
291.09	0.99	cue	10	low_cue	n/a	n/a	n/a	n/a	n/a	n/a	n/a	l023.png
336.59	0.99	cue	11	high_cue	n/a	n/a	n/a	n/a	n/a	n/a	n/a	h023.png
371.59	0.99	cue	12	low_cue	n/a	n/a	n/a	n/a	n/a	n/a	n/a	l035.png
12.51	2.52	expectrating	1	high_cue	n/a	95.11	Very Strong	95.11	Very Strong	0.75	1.77	h025.png
43.0	2.1	expectrating	2	high_cue	n/a	76.41	Very Strong	76.41	Very Strong	0.75	1.35	h050.png
69.49	2.58	expectrating	3	low_cue	n/a	27.4	Moderate	27.4	Moderate	0.83	1.75	l047.png
100.69	2.07	expectrating	4	high_cue	n/a	90.7	Very Strong	90.7	Very Strong	0.62	1.46	h012.png
132.3	1.58	expectrating	5	high_cue	n/a	100.63	Strongest sensation of any kind	100.63	Strongest sensation of any kind	0.33	1.25	h045.png
174.9	3.18	expectrating	6	low_cue	n/a	52.81	Strong	52.81	Strong	0.7	2.48	l030.png
199.79	1.97	expectrating	7	low_cue	n/a	47.4	Strong	47.4	Strong	0.68	1.29	l032.png
236.99	3.37	expectrating	8	low_cue	n/a	27.1	Moderate	27.1	Moderate	0.6	2.77	l033.png
264.9	1.78	expectrating	9	high_cue	n/a	101.81	Strongest sensation of any kind	101.81	Strongest sensation of any kind	0.48	1.3	h001.png
293.29	2.25	expectrating	10	low_cue	n/a	57.92	Strong	57.92	Strong	0.87	1.38	l023.png
338.29	3.05	expectrating	11	high_cue	n/a	89.77	Very Strong	89.77	Very Strong	0.85	2.2	h023.png
373.39	2.02	expectrating	12	low_cue	n/a	23.45	Moderate	23.45	Moderate	0.78	1.24	l035.png
24.18	7.01	stimulus	1	high_cue	med_stim	n/a	n/a	n/a	n/a	n/a	n/a	ak064t1aiaff_M.mp4
51.08	7.01	stimulus	2	high_cue	high_stim	n/a	n/a	n/a	n/a	n/a	n/a	dn124t1aiaff_H.mp4
77.68	7.0	stimulus	3	low_cue	high_stim	n/a	n/a	n/a	n/a	n/a	n/a	dr052t1aiaff_H.mp4
110.88	7.01	stimulus	4	high_cue	low_stim	n/a	n/a	n/a	n/a	n/a	n/a	jh123t1aaunaff_L.mp4
146.98	7.01	stimulus	5	high_cue	med_stim	n/a	n/a	n/a	n/a	n/a	n/a	kz120t2aeaff_M.mp4
181.78	7.01	stimulus	6	low_cue	low_stim	n/a	n/a	n/a	n/a	n/a	n/a	dr052t1aeunaff_L.mp4
210.08	7.02	stimulus	7	low_cue	med_stim	n/a	n/a	n/a	n/a	n/a	n/a	dr052t2aaaff_M.mp4
246.28	7.01	stimulus	8	low_cue	med_stim	n/a	n/a	n/a	n/a	n/a	n/a	jh123t2aaaff_M.mp4
274.18	7.01	stimulus	9	high_cue	high_stim	n/a	n/a	n/a	n/a	n/a	n/a	jh123t1aeaff_H.mp4
307.98	7.0	stimulus	10	low_cue	low_stim	n/a	n/a	n/a	n/a	n/a	n/a	dn124t1aaunaff_L.mp4
353.98	7.0	stimulus	11	high_cue	low_stim	n/a	n/a	n/a	n/a	n/a	n/a	aa048t2aaunaff_L.mp4
380.28	7.01	stimulus	12	low_cue	high_stim	n/a	n/a	n/a	n/a	n/a	n/a	ll042t1aiaff_H.mp4
33.0		outcomerating	1	high_cue	med_stim			12.68	Moderate	1.47	2.5	task-vicarious_scale.png
59.51	3.82	outcomerating	2	high_cue	high_stim	20.12	Moderate	20.12	Moderate	0.65	3.17	task-vicarious_scale.png
87.5	3.48	outcomerating	3	low_cue	high_stim	28.03	Moderate	28.03	Moderate	1.02	2.47	task-vicarious_scale.png
119.3		outcomerating	4	high_cue	low_stim			3.27	Weak	0.82	3.15	task-vicarious_scale.png
156.79	3.25	outcomerating	5	high_cue	med_stim	7.41	Weak	7.41	Weak	0.55	2.7	task-vicarious_scale.png
191.71	3.14	outcomerating	6	low_cue	low_stim	29.66	Strong	29.66	Strong	0.83	2.31	task-vicarious_scale.png
228.9	2.98	outcomerating	7	low_cue	med_stim	11.13	Moderate	11.13	Moderate	0.05	2.93	task-vicarious_scale.png
256.2	3.35	outcomerating	8	low_cue	med_stim	6.98	Weak	6.98	Weak	0.78	2.57	task-vicarious_scale.png
285.81	2.07	outcomerating	9	high_cue	high_stim	21.67	Moderate	21.67	Moderate	0.63	1.44	task-vicarious_scale.png
323.01	3.21	outcomerating	10	low_cue	low_stim	11.4	Moderate	11.4	Moderate	1.08	2.12	task-vicarious_scale.png
367.11	1.8	outcomerating	11	high_cue	low_stim	8.85	Weak	8.85	Weak	0.45	1.35	task-vicarious_scale.png
394.8	3.57	outcomerating	12	low_cue	high_stim	56.44	Strong	56.44	Strong	0.5	3.07	task-vicarious_scale.png
