ISI01_biopac,ISI01_duration,ISI01_onset,ISI02_biopac,ISI02_duration,ISI02_onset,ISI03_biopac,ISI03_duration,ISI03_onset,ITI_biopac,ITI_duration,ITI_onset,delay_between_medoc,event01_cue_biopac,event01_cue_filename,event01_cue_onset,event01_cue_type,event02_expect_RT,event02_expect_angle,event02_expect_angle_label,event02_expect_biopac,event02_expect_displayonset,event02_expect_responseonset,event03_stimulusC_RT,event03_stimulusC_reseponseonset,event03_stimulusC_response,event03_stimulusC_responsekeyname,event03_stimulus_C_stim_filename,event03_stimulus_C_stim_match,event03_stimulus_C_stim_num,event03_stimulus_P_delay_between_medoc,event03_stimulus_P_trigger,event03_stimulus_V_filename,event03_stimulus_V_patientid,event03_stimulus_biopac,event03_stimulus_displayonset,event03_stimulus_type,event04_actual_RT,event04_actual_angle,event04_actual_angle_label,event04_actual_biopac,event04_actual_displayonset,event04_actual_responseonset,param_cond_type,param_counterbalance_block_num,param_counterbalance_ver,param_cue_type,param_end_biopac,param_end_instruct_onset,param_experiment_duration,param_run_num,param_start_biopac,param_stimulus_type,param_task_name,param_trigger_onset,session_id,src_subject_id,trial_no
1616603832.35952,0.791459083557129,1616603832.35617,1616603837.2260199,4.62297677993774,1616603837.22466,1616603850.86534,3.98455595970154,1616603850.86308,1616603820.76362,10.597388744354198,1616603820.75185,0.0722110271453857,1616603831.36148,l049.png,1616603831.3558,low_cue,2.85130429267883,160.392922556143,FIX,1616603833.2089999,1616603833.20649,1616603836.0578,0,0,0,,,,0,0,Command Recieved: TRIGGER_AND_Response: RESULT_OK,,,1616603841.93639,1616603841.93556,low_stim,1.90123295783997,161.02959219151302,FIX,1616603854.8759902,1616603854.86457,1616603856.7658,1,2,5,low_cue,1616604216.4928901,1616604216.48276,398.52553033828696,-2,1616603817.9649198,low_stim,pain,1616603817.95723,4,9,1
1616603861.96933,1.9804148674011202,1616603861.9672198,1616603867.99292,4.66183924674988,1616603867.98613,1616603881.6595,6.48974084854126,1616603881.65789,1616603859.02649,1.93267822265625,1616603859.01612,0.0462150573730469,1616603860.9688401,l032.png,1616603860.96685,low_cue,1.5064496994018601,152.607630448107,FIX,1616603863.97549,1616603863.96796,1616603865.47441,0,0,0,,,,0,0,Command Recieved: TRIGGER_AND_Response: RESULT_OK,,,1616603872.69649,1616603872.69507,med_stim,1.4340915679931598,168.915108707758,FIX,1616603888.1766698,1616603888.1603198,1616603889.59441,2,2,5,low_cue,1616604216.4928901,1616604216.48276,398.52553033828696,-2,1616603817.9649198,med_stim,pain,1616603817.95723,4,9,2
1616603897.66589,1.9837725162506101,1616603897.6638598,1616603903.70187,0.748186826705933,1616603903.69945,1616603913.45942,4.49454998970032,1616603913.4530802,1616603892.20992,4.45369791984558,1616603892.19516,0.0503630638122559,1616603896.66501,h030.png,1616603896.66349,high_cue,1.6432731151580802,159.52484288598998,FIX,1616603899.68318,1616603899.6812801,1616603901.32455,0,0,0,,,,0,0,Command Recieved: TRIGGER_AND_Response: RESULT_OK,,,1616603904.50059,1616603904.49885,med_stim,1.63700222969055,154.78650412852102,FIX,1616603917.97199,1616603917.97144,1616603919.60844,5,2,5,high_cue,1616604216.4928901,1616604216.48276,398.52553033828696,-2,1616603817.9649198,med_stim,pain,1616603817.95723,4,9,3
1616603932.86216,0.887311935424805,1616603932.8603199,1616603937.7809,3.36881065368652,1616603937.77882,1616603950.16884,4.88085746765137,1616603950.16678,1616603922.0088902,9.84265542030334,1616603922.00627,0.0346920490264893,1616603931.8619199,l004.png,1616603931.85995,low_cue,1.30062508583069,160.314892418158,FIX,1616603933.76213,1616603933.76066,1616603935.06128,0,0,0,,,,0,0,Command Recieved: TRIGGER_AND_Response: RESULT_OK,,,1616603941.18405,1616603941.18299,high_stim,1.85591530799866,155.897765498839,FIX,1616603955.06934,1616603955.0686,1616603956.92452,3,2,5,low_cue,1616604216.4928901,1616604216.48276,398.52553033828696,-2,1616603817.9649198,high_stim,pain,1616603817.95723,4,9,4
1616603970.6603801,0.6898837089538571,1616603970.65775,1616603975.3945699,2.45478248596191,1616603975.39285,1616603986.86656,4.183837890625,1616603986.8638,1616603959.1106699,10.5458984375,1616603959.10344,0.0797560214996338,1616603969.6594698,h049.png,1616603969.65738,high_cue,1.56740593910217,159.145541960422,FIX,1616603971.37566,1616603971.37469,1616603972.94209,0,0,0,,,,0,0,Command Recieved: TRIGGER_AND_Response: RESULT_OK,,,1616603977.9305198,1616603977.92856,med_stim,1.8507776260376,162.220247540807,FIX,1616603991.07553,1616603991.06536,1616603992.91614,5,2,5,high_cue,1616604216.4928901,1616604216.48276,398.52553033828696,-2,1616603817.9649198,med_stim,pain,1616603817.95723,4,9,5
1616603997.7592,2.0964457988739,1616603997.75119,1616604003.88837,2.16103792190552,1616604003.88681,1616604015.0594301,4.789990663528441,1616604015.05764,1616603995.12566,1.63159799575806,1616603995.11687,0.0402178764343262,1616603996.76891,l024.png,1616603996.7674901,low_cue,1.3057897090911899,157.857294300155,FIX,1616603999.87001,1616603999.86864,1616604001.1744301,0,0,0,,,,0,0,Command Recieved: TRIGGER_AND_Response: RESULT_OK,,,1616604006.08993,1616604006.08875,high_stim,1.8341882228851298,153.434948822922,FIX,1616604019.86017,1616604019.85943,1616604021.69362,3,2,5,low_cue,1616604216.4928901,1616604216.48276,398.52553033828696,-2,1616603817.9649198,high_stim,pain,1616603817.95723,4,9,6
1616604026.16392,1.98585271835327,1616604026.16178,1616604032.18255,5.26694107055664,1616604032.18069,1616604046.45896,4.19518160820007,1616604046.45268,1616604023.89591,1.25421953201294,1616604023.89427,0.0765721797943115,1616604025.16279,l050.png,1616604025.1614099,low_cue,1.1005554199218799,155.517514102653,FIX,1616604028.16348,1616604028.1625302,1616604029.2630801,0,0,0,,,,0,0,Command Recieved: TRIGGER_AND_Response: RESULT_OK,,,1616604037.52687,1616604037.52507,low_stim,2.1368045806884797,150.080791311442,FIX,1616604050.6722,1616604050.67092,1616604052.80773,1,2,5,low_cue,1616604216.4928901,1616604216.48276,398.52553033828696,-2,1616603817.9649198,low_stim,pain,1616603817.95723,4,9,7
1616604056.5594401,0.691181659698486,1616604056.55645,1616604061.27666,4.87275719642639,1616604061.2748802,1616604075.16464,3.1842432022094704,1616604075.16339,1616604054.69228,0.8595483303070072,1616604054.68909,0.0545239448547363,1616604055.55935,h047.png,1616604055.55608,high_cue,1.83446645736694,166.693242218931,FIX,1616604057.25841,1616604057.25671,1616604059.09118,0,0,0,,,,0,0,Command Recieved: TRIGGER_AND_Response: RESULT_OK,,,1616604066.2034,1616604066.2026598,high_stim,1.9341886043548602,162.512002623851,FIX,1616604078.36533,1616604078.3645802,1616604080.29877,6,2,5,high_cue,1616604216.4928901,1616604216.48276,398.52553033828696,-2,1616603817.9649198,high_stim,pain,1616603817.95723,4,9,8
1616604087.25949,1.9964025020599399,1616604087.25123,1616604093.2928,2.16081809997559,1616604093.28681,1616604104.4591901,5.689985990524289,1616604104.45765,1616604082.39212,3.8657300472259504,1616604082.38275,0.0819120407104492,1616604086.26913,h054.png,1616604086.26753,high_cue,1.50579214096069,157.98416120222402,FIX,1616604089.2699802,1616604089.26865,1616604090.77444,0,0,0,,,,0,0,Command Recieved: TRIGGER_AND_Response: RESULT_OK,,,1616604095.5313199,1616604095.53031,high_stim,1.38396620750427,154.314661331313,FIX,1616604110.16059,1616604110.15977,1616604111.54374,6,2,5,high_cue,1616604216.4928901,1616604216.48276,398.52553033828696,-2,1616603817.9649198,high_stim,pain,1616603817.95723,4,9,9
1616604119.06499,1.7845387458801298,1616604119.06309,1616604124.88344,10.565701484680199,1616604124.88193,1616604144.45937,2.19173789024353,1616604144.4559,1616604114.19645,3.8538789749145494,1616604114.1946099,0.0401620864868164,1616604118.0644,h027.png,1616604118.0627198,high_cue,1.8509924411773702,164.517518285952,FIX,1616604120.86467,1616604120.86377,1616604122.71476,0,0,0,,,,0,0,Command Recieved: TRIGGER_AND_Response: RESULT_OK,,,1616604135.49001,1616604135.48878,low_stim,1.71772122383118,158.629377730657,FIX,1616604146.65865,1616604146.65672,1616604148.37444,4,2,5,high_cue,1616604216.4928901,1616604216.48276,398.52553033828696,-2,1616603817.9649198,low_stim,pain,1616603817.95723,4,9,10
1616604152.56056,1.8887152671813998,1616604152.55892,1616604158.47969,4.86984086036682,1616604158.47779,1616604172.36762,4.98132705688477,1616604172.36631,1616604150.67573,0.8738100528717041,1616604150.67488,0.0400500297546387,1616604151.56017,h046.png,1616604151.55855,high_cue,1.6508297920227097,158.369113163482,FIX,1616604154.46039,1616604154.45963,1616604156.11046,0,0,0,,,,0,0,Command Recieved: TRIGGER_AND_Response: RESULT_OK,,,1616604163.38913,1616604163.38824,low_stim,2.78964948654175,159.775140568832,FIX,1616604177.36902,1616604177.36817,1616604180.15782,4,2,5,high_cue,1616604216.4928901,1616604216.48276,398.52553033828696,-2,1616603817.9649198,low_stim,pain,1616603817.95723,4,9,11
1616604185.95942,0.892926454544067,1616604185.95471,1616604190.8928,7.55775356292725,1616604190.8898802,1616604207.4649599,4.98490715026855,1616604207.4627302,1616604181.39187,3.5621101856231703,1616604181.3863301,0.0620310306549072,1616604184.95904,l015.png,1616604184.95433,low_cue,1.75270128250122,159.820541335489,FIX,1616604186.87298,1616604186.8717198,1616604188.62442,0,0,0,,,,0,0,Command Recieved: TRIGGER_AND_Response: RESULT_OK,,,1616604198.5119,1616604198.51037,med_stim,1.9341900348663301,161.11975615699302,FIX,1616604212.4663901,1616604212.46459,1616604214.39878,2,2,5,low_cue,1616604216.4928901,1616604216.48276,398.52553033828696,-2,1616603817.9649198,med_stim,pain,1616603817.95723,4,9,12
1616605652.6875598,1.58323073387146,1616605652.68502,1616605658.32631,5.14779448509216,1616605658.32045,1616605672.47759,2.992516040802,1616605672.4757302,1616605649.48639,2.18597292900085,1616605649.48382,0.106492042541504,1616605651.6935,l044.png,1616605651.68464,low_cue,1.7057001590728798,159.309331486067,FIX,1616605654.30372,1616605654.30229,1616605656.0079901,0,0,0,,,,0,0,Command Recieved: TRIGGER_AND_Response: RESULT_OK,,,1616605663.57995,1616605663.57812,high_stim,1.90084409713745,150.22642777931003,FIX,1616605675.49455,1616605675.49352,1616605677.39436,3,1,5,low_cue,1616606045.61683,1616606045.61488,398.92741584777804,2,1616605646.68874,high_stim,pain,1616605646.68747,4,9,13
1616605685.0827801,1.28781604766846,1616605685.08043,1616605690.4008698,6.26917099952698,1616605690.39908,1616605705.6902301,6.48013162612915,1616605705.6881099,1616605679.5262,4.55746912956238,1616605679.5116901,0.0463728904724121,1616605684.08184,h047.png,1616605684.08006,high_cue,2.1677281856536896,158.89516141507,FIX,1616605686.39204,1616605686.38091,1616605688.54864,0,0,0,,,,0,0,Command Recieved: TRIGGER_AND_Response: RESULT_OK,,,1616605696.71613,1616605696.7152,med_stim,1.38413643836975,158.10843200503598,FIX,1616605712.19229,1616605712.19054,1616605713.57468,5,1,5,high_cue,1616606045.61683,1616606045.61488,398.92741584777804,2,1616605646.68874,med_stim,pain,1616605646.68747,4,9,14
1616605718.37801,1.29206657409668,1616605718.3761802,1616605723.69668,0.8734159469604491,1616605723.6948302,1616605733.58378,1.38639497756958,1616605733.58185,1616605716.22699,1.1437997817993202,1616605716.2253802,0.0559461116790771,1616605717.37783,l055.png,1616605717.37581,low_cue,1.28388357162476,148.877529803208,FIX,1616605719.69209,1616605719.67666,1616605720.96055,0,0,0,,,,0,0,Command Recieved: TRIGGER_AND_Response: RESULT_OK,,,1616605724.62621,1616605724.6248698,low_stim,2.25891542434692,159.243520587245,FIX,1616605734.9923,1616605734.98237,1616605737.24129,1,1,5,low_cue,1616606045.61683,1616606045.61488,398.92741584777804,2,1616605646.68874,low_stim,pain,1616605646.68747,4,9,15
1616605747.8892698,1.58106017112732,1616605747.88719,1616605753.5094302,1.36230325698853,1616605753.50595,1616605763.87803,6.49180388450623,1616605763.87648,1616605739.01875,7.85205793380737,1616605739.01721,0.0608730316162109,1616605746.88875,h033.png,1616605746.88681,high_cue,1.25354170799255,158.156023077562,FIX,1616605749.4922302,1616605749.48778,1616605750.74132,0,0,0,,,,0,0,Command Recieved: TRIGGER_AND_Response: RESULT_OK,,,1616605754.93127,1616605754.92992,low_stim,1.43499851226807,158.19859051364799,FIX,1616605770.3924599,1616605770.37891,1616605771.81391,4,1,5,high_cue,1616606045.61683,1616606045.61488,398.92741584777804,2,1616605646.68874,low_stim,pain,1616605646.68747,4,9,16
1616605780.28446,1.58564805984497,1616605780.2826,1616605785.9034,6.26688575744629,1616605785.90136,1616605801.1768801,1.8945238590240498,1616605801.17372,1616605774.40954,4.87209558486938,1616605774.39707,0.0457339286804199,1616605779.2837698,l043.png,1616605779.2822301,low_cue,1.72481441497803,153.755630807423,FIX,1616605781.89226,1616605781.8832,1616605783.60801,0,0,0,,,,0,0,Command Recieved: TRIGGER_AND_Response: RESULT_OK,,,1616605792.21599,1616605792.21474,med_stim,1.43404603004456,161.050212072886,FIX,1616605803.09214,1616605803.09111,1616605804.52515,2,1,5,low_cue,1616606045.61683,1616606045.61488,398.92741584777804,2,1616605646.68874,med_stim,pain,1616605646.68747,4,9,17
1616605812.98011,1.29012131690979,1616605812.97813,1616605818.29822,6.17147159576416,1616605818.29678,1616605833.4876,3.7824723720550497,1616605833.48577,1616605807.12621,4.860002279281621,1616605807.1092699,0.0957169532775879,1616605811.97962,h053.png,1616605811.97775,high_cue,1.0338315963745102,158.19859051364799,FIX,1616605814.29209,1616605814.27861,1616605815.3124402,0,0,0,,,,0,0,Command Recieved: TRIGGER_AND_Response: RESULT_OK,,,1616605824.56511,1616605824.56439,high_stim,1.754150390625,159.09443066308398,FIX,1616605837.29216,1616605837.28719,1616605839.04134,6,1,5,high_cue,1616606045.61683,1616606045.61488,398.92741584777804,2,1616605646.68874,high_stim,pain,1616605646.68747,4,9,18
1616605847.07605,1.3940708637237502,1616605847.0741801,1616605852.51119,6.258712530136111,1616605852.50953,1616605867.78366,9.886348962783812,1616605867.7819,1616605841.32366,4.74711203575134,1616605841.32203,0.0801041126251221,1616605846.07616,l015.png,1616605846.0738,low_cue,1.75079226493835,154.885165113855,FIX,1616605848.4925802,1616605848.49137,1616605850.2421598,0,0,0,,,,0,0,Command Recieved: TRIGGER_AND_Response: RESULT_OK,,,1616605858.85006,1616605858.84917,low_stim,1.4058082103729201,163.23479749178998,FIX,1616605877.69215,1616605877.68559,1616605879.0914,1,1,5,low_cue,1616606045.61683,1616606045.61488,398.92741584777804,2,1616605646.68874,low_stim,pain,1616605646.68747,4,9,19
1616605884.0762699,1.6969413757324199,1616605884.0713,1616605889.81032,2.26147031784058,1616605889.80678,1616605901.07934,6.790600776672361,1616605901.07765,1616605881.70896,1.36539483070374,1616605881.70376,0.0343968868255615,1616605883.08944,l053.png,1616605883.0876,low_cue,1.0194520950317398,154.358994175695,FIX,1616605885.79219,1616605885.78861,1616605886.80806,0,0,0,,,,0,0,Command Recieved: TRIGGER_AND_Response: RESULT_OK,,,1616605892.10475,1616605892.10344,high_stim,1.80086016654968,162.52111793048002,FIX,1616605907.89265,1616605907.8801801,1616605909.68104,3,1,5,low_cue,1616606045.61683,1616606045.61488,398.92741584777804,2,1616605646.68874,high_stim,pain,1616605646.68747,4,9,20
1616605914.18446,2.1857123374938996,1616605914.1825302,1616605920.40301,4.4667289257049605,1616605920.40152,1616605933.8763,3.4950351715087904,1616605933.87321,1616605911.9103599,1.27095365524292,1616605911.89835,0.0494949817657471,1616605913.18424,h015.png,1616605913.18216,high_cue,1.8248224258422898,156.107497691973,FIX,1616605916.39217,1616605916.38335,1616605918.2081802,0,0,0,,,,0,0,Command Recieved: TRIGGER_AND_Response: RESULT_OK,,,1616605924.91942,1616605924.91855,high_stim,1.9842383861541701,155.825218042365,FIX,1616605937.39217,1616605937.39119,1616605939.37543,6,1,5,high_cue,1616606045.61683,1616606045.61488,398.92741584777804,2,1616605646.68874,high_stim,pain,1616605646.68747,4,9,21
1616605952.18216,1.88820910453796,1616605952.1800401,1616605958.1006598,6.16943764686584,1616605958.0989099,1616605973.28945,3.0803406238555895,1616605973.28791,1616605941.42678,9.759868383407591,1616605941.40935,0.0804131031036377,1616605951.18139,h027.png,1616605951.1796598,high_cue,2.22723865509033,157.076134080823,FIX,1616605954.09223,1616605954.08075,1616605956.30799,0,0,0,,,,0,0,Command Recieved: TRIGGER_AND_Response: RESULT_OK,,,1616605964.35085,1616605964.34951,med_stim,3.18560004234314,153.639941792647,FIX,1616605976.39222,1616605976.38907,1616605979.5746698,5,1,5,high_cue,1616606045.61683,1616606045.61488,398.92741584777804,2,1616605646.68874,med_stim,pain,1616605646.68747,4,9,22
1616605983.57646,1.3931684494018601,1616605983.5750802,1616605989.0120401,2.25780701637268,1616605989.01044,1616606000.28316,4.68693733215332,1616606000.2813098,1616605980.42641,2.14533638954163,1616605980.4239,0.0472180843353271,1616605982.57628,h010.png,1616605982.57471,high_cue,1.93419551849365,154.19307179075,FIX,1616605984.99326,1616605984.99227,1616605986.9264698,0,0,0,,,,0,0,Command Recieved: TRIGGER_AND_Response: RESULT_OK,,,1616605991.3182,1616605991.3166199,low_stim,1.77494621276855,162.228679177091,FIX,1616606004.9920099,1616606004.98306,1616606006.75801,4,1,5,high_cue,1616606045.61683,1616606045.61488,398.92741584777804,2,1616605646.68874,low_stim,pain,1616605646.68747,4,9,23
1616606018.87619,0.8966715335845951,1616606018.8715699,1616606023.80961,6.06149816513062,1616606023.80675,1616606038.88041,2.6892104148864706,1616606038.87904,1616606009.00934,8.86798095703125,1616606009.00123,0.0337328910827637,1616606017.88965,l021.png,1616606017.8878698,low_cue,1.5027542114257801,164.1808060525,FIX,1616606019.7921,1616606019.7885802,1616606021.29134,0,0,0,,,,0,0,Command Recieved: TRIGGER_AND_Response: RESULT_OK,,,1616606029.90362,1616606029.9026,med_stim,1.3506338596344,152.844291608275,FIX,1616606041.59239,1616606041.58004,1616606042.93068,2,1,5,low_cue,1616606045.61683,1616606045.61488,398.92741584777804,2,1616605646.68874,med_stim,pain,1616605646.68747,4,9,24
1615997976.74096,0.5927996635437011,1615997976.72784,1615997981.3910599,5.84106540679932,1615997981.37958,1615997996.2413,2.98552322387695,1615997996.2351198,1615997969.44416,6.297121286392209,1615997969.4251199,0.0851690769195557,1615997975.7477,h002.png,1615997975.7441401,high_cue,2.3677215576171897,158.810421500435,FIX,1615997977.3737302,1615997977.36141,1615997979.72914,0,0,0,,,,0,0,Command Recieved: TRIGGER_AND_Response: RESULT_OK,,,1615997987.3238802,1615997987.32301,high_stim,2.21985650062561,159.227745317954,FIX,1615997999.23981,1615997999.2362401,1615998001.45609,6,1,5,high_cue,1615998365.67438,1615998365.65622,399.012561321259,1,1615997966.65044,high_stim,pain,1615997966.64366,3,9,25
1615998013.14348,0.8792202472686771,1615998013.14142,1615998018.06192,7.26071906089783,1615998018.0599198,1615998034.3411,7.787984609603879,1615998034.33266,1615998003.3406901,8.78430128097534,1615998003.33777,0.0607020854949951,1615998012.14292,l040.png,1615998012.14105,low_cue,1.6674501895904499,156.014096323205,FIX,1615998014.04314,1615998014.04176,1615998015.70921,0,0,0,,,,0,0,Command Recieved: TRIGGER_AND_Response: RESULT_OK,,,1615998025.3826401,1615998025.38184,low_stim,2.0701892375946,141.01750303284598,FIX,1615998042.13986,1615998042.1355698,1615998044.20576,1,1,5,low_cue,1615998365.67438,1615998365.65622,399.012561321259,1,1615997966.65044,low_stim,pain,1615997966.64366,3,9,26
1615998054.84305,1.28033518791199,1615998054.8403099,1615998060.16101,8.961684942245482,1615998060.1589599,1615998078.1410801,6.8883159160614005,1615998078.1323302,1615998046.17361,7.651339769363401,1615998046.17041,0.0769660472869873,1615998053.8417199,h033.png,1615998053.83993,high_cue,1.71759152412415,168.231711067979,FIX,1615998056.14166,1615998056.14079,1615998057.85838,0,0,0,,,,0,0,Command Recieved: TRIGGER_AND_Response: RESULT_OK,,,1615998069.20033,1615998069.19856,low_stim,1.72153425216675,145.53918372862802,FIX,1615998085.03997,1615998085.0349,1615998086.75644,4,1,5,high_cue,1615998365.67438,1615998365.65622,399.012561321259,1,1615997966.65044,low_stim,pain,1615997966.64366,3,9,27
1615998096.7413,0.881377220153809,1615998096.73927,1615998101.65987,1.06287908554077,1615998101.65777,1615998111.7411401,3.4924545288085898,1615998111.72819,1615998089.07407,6.65200734138489,1615998089.06974,0.034512996673584,1615998095.74108,h020.png,1615998095.73889,high_cue,1.85099196434021,157.255887893374,FIX,1615998097.6406,1615998097.6396,1615998099.49059,0,0,0,,,,0,0,Command Recieved: TRIGGER_AND_Response: RESULT_OK,,,1615998102.7567,1615998102.75576,med_stim,2.35102462768555,155.080335630168,FIX,1615998115.24718,1615998115.2461698,1615998117.5971901,5,1,5,high_cue,1615998365.67438,1615998365.65622,399.012561321259,1,1615997966.65044,med_stim,pain,1615997966.64366,3,9,28
1615998123.0430698,2.18823909759521,1615998123.0324,1615998129.25814,5.8692522048950195,1615998129.25139,1615998144.14261,6.78036737442017,1615998144.14028,1615998119.2841,2.74123477935791,1615998119.28101,0.0654141902923584,1615998122.04191,l032.png,1615998122.03203,low_cue,1.7892429828643799,140.47271167125,FIX,1615998125.24004,1615998125.23323,1615998127.02247,0,0,0,,,,0,0,Command Recieved: TRIGGER_AND_Response: RESULT_OK,,,1615998135.1888301,1615998135.18694,low_stim,1.53417658805847,148.269115377551,FIX,1615998150.94389,1615998150.94281,1615998152.47699,1,1,5,low_cue,1615998365.67438,1615998365.65622,399.012561321259,1,1615997966.65044,low_stim,pain,1615997966.64366,3,9,29
1615998157.24066,1.6921529769897499,1615998157.22849,1615998162.94902,1.37335395812988,1615998162.94729,1615998173.34063,1.4861466884613002,1615998173.3345,1615998154.9959,1.22720193862915,1615998154.99432,0.0419371128082275,1615998156.24096,l031.png,1615998156.2281199,low_cue,1.16723775863647,145.609685591287,FIX,1615998158.9398901,1615998158.9291198,1615998160.09636,0,0,0,,,,0,0,Command Recieved: TRIGGER_AND_Response: RESULT_OK,,,1615998164.36421,1615998164.36322,high_stim,1.17066955566406,155.616590226473,FIX,1615998174.83976,1615998174.83506,1615998176.0057302,3,1,5,low_cue,1615998365.67438,1615998365.65622,399.012561321259,1,1615997966.65044,high_stim,pain,1615997966.64366,3,9,30
1615998181.7406301,1.2830126285553,1615998181.7376301,1615998187.05796,1.66436362266541,1615998187.0562801,1615998197.74094,1.5937173366546598,1615998197.7269301,1615998178.87175,1.85162305831909,1615998178.86989,0.0358860492706299,1615998180.74065,l038.png,1615998180.7372599,low_cue,1.6176662445068402,156.58566523618998,FIX,1615998183.0397801,1615998183.03812,1615998184.65578,0,0,0,,,,0,0,Command Recieved: TRIGGER_AND_Response: RESULT_OK,,,1615998188.75801,1615998188.75708,med_stim,2.5177481174469,148.28706399878598,FIX,1615998199.3457,1615998199.3442,1615998201.8619401,2,1,5,low_cue,1615998365.67438,1615998365.65622,399.012561321259,1,1615997966.65044,med_stim,pain,1615997966.64366,3,9,31
1615998206.6408901,1.39039731025696,1615998206.63025,1615998212.0507,1.0717089176178,1615998212.0489302,1615998222.14107,6.18461275100708,1615998222.1360302,1615998203.3735,2.2591955661773704,1615998203.36236,0.0575850009918213,1615998205.64059,l044.png,1615998205.62987,low_cue,1.76751565933228,157.791923828768,FIX,1615998208.04,1615998208.0307698,1615998209.79828,0,0,0,,,,0,0,Command Recieved: TRIGGER_AND_Response: RESULT_OK,,,1615998213.1804302,1615998213.17905,med_stim,1.98420715332031,147.035992195553,FIX,1615998228.34016,1615998228.33834,1615998230.32255,2,1,5,low_cue,1615998365.67438,1615998365.65622,399.012561321259,1,1615997966.65044,med_stim,pain,1615997966.64366,3,9,32
1615998235.641,2.19625091552734,1615998235.6243901,1615998241.86216,4.46059250831604,1615998241.86005,1615998255.34092,6.18890142440796,1615998255.3317401,1615998232.3749,2.24833798408508,1615998232.3731802,0.059563159942627,1615998234.64331,l005.png,1615998234.64069,low_cue,1.5674295425415001,153.434948822922,FIX,1615998237.8431,1615998237.84189,1615998239.4093199,0,0,0,,,,0,0,Command Recieved: TRIGGER_AND_Response: RESULT_OK,,,1615998246.38188,1615998246.38078,high_stim,2.17188191413879,152.686725581703,FIX,1615998261.54001,1615998261.53405,1615998263.70594,3,1,5,low_cue,1615998365.67438,1615998365.65622,399.012561321259,1,1615997966.65044,high_stim,pain,1615997966.64366,3,9,33
1615998272.64078,2.08244681358337,1615998272.6382,1615998278.75925,2.96349883079529,1615998278.75714,1615998290.74037,4.4923677444458,1615998290.72828,1615998265.57091,6.05280208587646,1615998265.56889,0.0510449409484863,1615998271.6444302,h001.png,1615998271.63782,high_cue,2.4011850357055695,164.05460409907698,FIX,1615998274.74001,1615998274.73898,1615998277.1401699,0,0,0,,,,0,0,Command Recieved: TRIGGER_AND_Response: RESULT_OK,,,1615998281.77311,1615998281.77225,low_stim,1.98421001434326,155.892029037153,FIX,1615998295.2399,1615998295.22995,1615998297.21416,4,1,5,high_cue,1615998365.67438,1615998365.65622,399.012561321259,1,1615997966.65044,low_stim,pain,1615997966.64366,3,9,34
1615998306.84075,1.68636059761047,1615998306.83428,1615998312.5570002,4.46756267547607,1615998312.55308,1615998326.0432901,5.4791984558105495,1615998326.04144,1615998299.26653,6.5567946434021,1615998299.26479,0.0577850341796875,1615998305.84075,h035.png,1615998305.83391,high_cue,1.4208397865295401,160.520712531575,FIX,1615998308.54024,1615998308.53492,1615998309.95575,0,0,0,,,,0,0,Command Recieved: TRIGGER_AND_Response: RESULT_OK,,,1615998317.0805,1615998317.07944,med_stim,1.61746764183044,149.845452082084,FIX,1615998331.54452,1615998331.5435,1615998333.16096,5,1,5,high_cue,1615998365.67438,1615998365.65622,399.012561321259,1,1615997966.65044,med_stim,pain,1615997966.64366,3,9,35
1615998337.7407,1.6915054321289098,1615998337.72914,1615998343.45015,8.67270755767822,1615998343.44794,1615998361.1405401,0.482775688171387,1615998361.1378698,1615998335.57352,1.15987777709961,1615998335.56166,0.0428512096405029,1615998336.74071,h056.png,1615998336.72876,high_cue,1.6260814666748,165.79606204648599,FIX,1615998339.4400198,1615998339.42977,1615998341.05585,0,0,0,,,,0,0,Command Recieved: TRIGGER_AND_Response: RESULT_OK,,,1615998352.1653,1615998352.1642802,high_stim,2.33448243141174,161.785701355253,FIX,1615998361.6400099,1615998361.63805,1615998363.9725301,6,1,5,high_cue,1615998365.67438,1615998365.65622,399.012561321259,1,1615997966.65044,high_stim,pain,1615997966.64366,3,9,36
1616000228.2866302,1.18210291862488,1616000228.28417,1616000233.52519,4.646816968917849,1616000233.51945,1616000247.17678,5.19172501564026,1616000247.17454,1616000226.1858099,1.08438682556152,1616000226.1833801,0.0522429943084717,1616000227.29136,h032.png,1616000227.28379,high_cue,2.72145247459412,160.411600725973,FIX,1616000229.5025802,1616000229.50129,1616000232.22274,0,0,0,,,,0,0,Command Recieved: TRIGGER_AND_Response: RESULT_OK,,,1616000238.22243,1616000238.2211199,low_stim,1.61742639541626,156.161259816828,FIX,1616000252.39416,1616000252.3931599,1616000254.01058,4,2,5,high_cue,1616000622.2079198,1616000622.19773,398.80911922454806,6,1616000223.39053,low_stim,pain,1616000223.38861,3,9,37
1616000257.98086,1.38769555091858,1616000257.97857,1616000263.39882,7.76900720596313,1616000263.39726,1616000280.18854,3.07941293716431,1616000280.1868598,1616000256.42426,0.556354284286499,1616000256.41132,0.0575258731842041,1616000256.98018,l014.png,1616000256.9782,low_cue,3.1104934215545694,165.612612126555,FIX,1616000259.3901699,1616000259.3791,1616000262.48959,0,0,0,,,,0,0,Command Recieved: TRIGGER_AND_Response: RESULT_OK,,,1616000271.22527,1616000271.22435,med_stim,1.60133123397827,159.01215302990602,FIX,1616000283.29016,1616000283.28801,1616000284.88934,2,2,5,low_cue,1616000622.2079198,1616000622.19773,398.80911922454806,6,1616000223.39053,med_stim,pain,1616000223.38861,3,9,38
1616000289.47563,1.1926167011261002,1616000289.47365,1616000294.69382,0.574004650115967,1616000294.69226,1616000304.28088,1.48709678649902,1616000304.27917,1616000287.3071198,1.1609935760498,1616000287.30618,0.0696849822998047,1616000288.47546,h033.png,1616000288.4732802,high_cue,1.15062737464905,169.59228868751,FIX,1616000290.6903698,1616000290.6741,1616000291.8247302,0,0,0,,,,0,0,Command Recieved: TRIGGER_AND_Response: RESULT_OK,,,1616000295.3379998,1616000295.3366199,low_stim,1.8341770172119098,159.309331486067,FIX,1616000305.79018,1616000305.77973,1616000307.61391,4,2,5,high_cue,1616000622.2079198,1616000622.19773,398.80911922454806,6,1616000223.39053,low_stim,pain,1616000223.38861,3,9,39
1616000311.88368,2.48426103591919,1616000311.88201,1616000318.40784,8.96516251564026,1616000318.40111,1616000336.3763099,6.1917929649353,1616000336.37448,1616000309.80743,1.06927990913391,1616000309.7979,0.0697450637817383,1616000310.8835301,l023.png,1616000310.88164,low_cue,1.7730684280395501,163.739795291688,FIX,1616000314.39041,1616000314.38294,1616000316.15601,0,0,0,,,,0,0,Command Recieved: TRIGGER_AND_Response: RESULT_OK,,,1616000327.43805,1616000327.43661,med_stim,1.8175764083862298,166.43775423555098,FIX,1616000342.5904,1616000342.57679,1616000344.3943698,2,2,5,low_cue,1616000622.2079198,1616000622.19773,398.80911922454806,6,1616000223.39053,med_stim,pain,1616000223.38861,3,9,40
1616000348.6808698,0.687204360961914,1616000348.67906,1616000353.39916,0.568777799606323,1616000353.39749,1616000362.98651,6.18187022209167,1616000362.9844,1616000346.6075099,1.07226324081421,1616000346.59495,0.0801010131835938,1616000347.6802099,h017.png,1616000347.67869,high_cue,2.6433749198913596,165.37912601136802,FIX,1616000349.39118,1616000349.3793302,1616000352.0227,0,0,0,,,,0,0,Command Recieved: TRIGGER_AND_Response: RESULT_OK,,,1616000354.04876,1616000354.04732,high_stim,1.65264368057251,159.740961344702,FIX,1616000369.1902401,1616000369.18671,1616000370.83936,6,2,5,high_cue,1616000622.2079198,1616000622.19773,398.80911922454806,6,1616000223.39053,high_stim,pain,1616000223.38861,3,9,41
1616000374.7742698,2.4941413402557404,1616000374.77213,1616000381.30969,1.7583689689636202,1616000381.3079,1616000392.08023,5.187686681747441,1616000392.0785801,1616000373.2232802,0.5456383228302001,1616000373.22155,0.0565891265869141,1616000373.77417,l028.png,1616000373.77175,low_cue,1.33398365974426,162.728257422319,FIX,1616000377.2904198,1616000377.28973,1616000378.62372,0,0,0,,,,0,0,Command Recieved: TRIGGER_AND_Response: RESULT_OK,,,1616000383.12514,1616000383.1236901,low_stim,1.94221353530884,162.001305026978,FIX,1616000397.29016,1616000397.28052,1616000399.2227302,1,2,5,low_cue,1616000622.2079198,1616000622.19773,398.80911922454806,6,1616000223.39053,low_stim,pain,1616000223.38861,3,9,42
1616000407.88622,1.1817915439605702,1616000407.88448,1616000413.10753,8.16317987442017,1616000413.10309,1616000430.27868,6.29010820388794,1616000430.27616,1616000401.3071198,5.568476676940921,1616000401.29869,0.054840087890625,1616000406.8857698,l049.png,1616000406.8841,low_cue,1.4544796943664597,164.68166420654498,FIX,1616000409.0905,1616000409.08492,1616000410.5394,0,0,0,,,,0,0,Command Recieved: TRIGGER_AND_Response: RESULT_OK,,,1616000421.3227198,1616000421.3217301,high_stim,1.50090312957764,162.659741768931,FIX,1616000436.59061,1616000436.57851,1616000438.07941,3,2,5,low_cue,1616000622.2079198,1616000622.19773,398.80911922454806,6,1616000223.39053,high_stim,pain,1616000223.38861,3,9,43
1616000447.78454,1.18358016014099,1616000447.78269,1616000453.0074198,0.564966678619385,1616000453.0013,1616000462.57425,6.29473114013672,1616000462.57154,1616000440.60763,6.170517206192019,1616000440.5966802,0.0386419296264648,1616000446.7842698,l004.png,1616000446.78232,low_cue,1.67305064201355,163.323914931889,FIX,1616000448.99043,1616000448.98314,1616000450.6561902,0,0,0,,,,0,0,Command Recieved: TRIGGER_AND_Response: RESULT_OK,,,1616000453.60639,1616000453.6055698,low_stim,1.7341103553772,165.291696100317,FIX,1616000468.89147,1616000468.89056,1616000470.62467,1,2,5,low_cue,1616000622.2079198,1616000622.19773,398.80911922454806,6,1616000223.39053,low_stim,pain,1616000223.38861,3,9,44
1616000483.68201,2.4868593215942405,1616000483.67941,1616000490.20017,8.967762708663939,1616000490.19851,1616000508.17429,3.094393491745,1616000508.17188,1616000472.9242802,9.75847434997559,1616000472.90873,0.0909199714660645,1616000482.68131,h045.png,1616000482.67904,high_cue,1.5924665927886998,162.439727948199,FIX,1616000486.19074,1616000486.18034,1616000487.77281,0,0,0,,,,0,0,Command Recieved: TRIGGER_AND_Response: RESULT_OK,,,1616000499.25869,1616000499.25776,high_stim,1.4008047580719,160.90650799951402,FIX,1616000511.29075,1616000511.28971,1616000512.69051,6,2,5,high_cue,1616000622.2079198,1616000622.19773,398.80911922454806,6,1616000223.39053,high_stim,pain,1616000223.38861,3,9,45
1616000518.47794,1.3905494213104201,1616000518.47572,1616000523.8960302,1.57186222076416,1616000523.89441,1616000534.48334,1.4845817089080802,1616000534.48169,1616000515.32429,2.1593337059021,1616000515.30787,0.0651190280914307,1616000517.4767802,l055.png,1616000517.47535,low_cue,1.7841687202453602,159.09443066308398,FIX,1616000519.89078,1616000519.87624,1616000521.66041,0,0,0,,,,0,0,Command Recieved: TRIGGER_AND_Response: RESULT_OK,,,1616000525.53354,1616000525.53211,high_stim,1.7404932975768999,159.030174447537,FIX,1616000535.99029,1616000535.98225,1616000537.72274,3,2,5,low_cue,1616000622.2079198,1616000622.19773,398.80911922454806,6,1616000223.39053,high_stim,pain,1616000223.38861,3,9,46
1616000555.4746401,1.39341974258423,1616000555.47285,1616000560.9102,3.2580597400665297,1616000560.90821,1616000573.1815,5.98681783676147,1616000573.17945,1616000540.01895,14.450129508972198,1616000540.01709,0.0364439487457275,1616000554.47424,h004.png,1616000554.47248,high_cue,1.66756010055542,159.605123917952,FIX,1616000556.8912199,1616000556.89004,1616000558.5576,0,0,0,,,,0,0,Command Recieved: TRIGGER_AND_Response: RESULT_OK,,,1616000564.20528,1616000564.20349,med_stim,1.8577198982238798,163.832282345358,FIX,1616000579.19018,1616000579.18169,1616000581.0394099,5,2,5,high_cue,1616000622.2079198,1616000622.19773,398.80911922454806,6,1616000223.39053,med_stim,pain,1616000223.38861,3,9,47
1616000593.97453,0.9957308769226071,1616000593.97054,1616000599.0077698,6.96051812171936,1616000599.00575,1616000614.97998,3.18789672851562,1616000614.97837,1616000583.2073698,9.76741862297058,1616000583.1998599,0.0574510097503662,1616000592.98849,h038.png,1616000592.98684,high_cue,1.7518486976623502,163.168331241758,FIX,1616000594.99033,1616000594.98758,1616000596.7394302,0,0,0,,,,0,0,Command Recieved: TRIGGER_AND_Response: RESULT_OK,,,1616000606.0257301,1616000606.02442,med_stim,2.24315071105957,163.96005669395,FIX,1616000618.19049,1616000618.17957,1616000620.42272,5,2,5,high_cue,1616000622.2079198,1616000622.19773,398.80911922454806,6,1616000223.39053,med_stim,pain,1616000223.38861,3,9,48
1614792984.7122,1.78598499298096,1614792984.70962,1614792990.54675,4.75047516822815,1614792990.54513,1614793004.31226,4.29534435272217,1614793004.30026,1614792981.1122599,2.58765769004822,1614792981.1082802,0.0991151332855225,1614792983.71198,h006.png,1614792983.70925,high_cue,2.3677771091461204,41.250935477652,FIX,1614792986.52763,1614792986.52697,1614792988.89474,0,0,0,,,,0,0,Command Recieved: TRIGGER_AND_Response: RESULT_OK,,,1614792995.40731,1614792995.4069,low_stim,2.71788883209229,105.31545119691799,FIX,1614793008.61871,1614793008.61854,1614793011.33643,4,2,5,high_cue,1614793377.12871,1614793377.1226301,398.821971178055,2,1614792978.3013,low_stim,pain,1614792978.30066,1,9,49
1614793014.41207,1.3916726112365703,1614793014.40403,1614793019.82897,4.7728910446167,1614793019.8227198,1614793033.6126301,3.4844145774841295,1614793033.61119,1614793012.65475,0.742631196975708,1614793012.6533802,0.0546989440917969,1614793013.41196,h004.png,1614793013.40366,high_cue,3.15640234947205,51.3401917459099,FIX,1614793015.81095,1614793015.80455,1614793018.96095,0,0,0,,,,0,0,Command Recieved: TRIGGER_AND_Response: RESULT_OK,,,1614793024.6512,1614793024.65085,high_stim,3.25139093399048,112.86705629977301,FIX,1614793037.1129801,1614793037.1125,1614793040.36389,6,2,5,high_cue,1614793377.12871,1614793377.1226301,398.821971178055,2,1614792978.3013,high_stim,pain,1614792978.30066,1,9,50
1614793048.01229,1.39571475982666,1614793047.99989,1614793053.43634,4.26035404205322,1614793053.43525,1614793066.71196,3.48900175094604,1614793066.7068698,1614793041.1454802,5.86521768569946,1614793041.13066,0.0549838542938232,1614793047.01172,h012.png,1614793046.9995198,high_cue,3.3848540782928502,76.0752267795906,FIX,1614793049.4179301,1614793049.41709,1614793052.80194,0,0,0,,,,0,0,Command Recieved: TRIGGER_AND_Response: RESULT_OK,,,1614793057.75195,1614793057.7513402,med_stim,3.0027427673339804,117.704599947148,FIX,1614793070.2109802,1614793070.20817,1614793073.2109199,5,2,5,high_cue,1614793377.12871,1614793377.1226301,398.821971178055,2,1614792978.3013,med_stim,pain,1614792978.30066,1,9,51
1614793075.91191,0.48530745506286604,1614793075.9103,1614793080.42995,1.5673243999481201,1614793080.42865,1614793091.01221,4.99634575843811,1614793090.99926,1614793074.22813,0.669593572616577,1614793074.22634,0.0445339679718018,1614793074.91215,l013.png,1614793074.90993,low_cue,2.50111055374146,45.325540698659296,FIX,1614793076.41095,1614793076.41049,1614793078.9116,0,0,0,,,,0,0,Command Recieved: TRIGGER_AND_Response: RESULT_OK,,,1614793082.04137,1614793082.04101,low_stim,2.7846052646637003,63.434948822922,FIX,1614793096.01799,1614793096.0178,1614793098.8024,1,2,5,low_cue,1614793377.12871,1614793377.1226301,398.821971178055,2,1614792978.3013,low_stim,pain,1614792978.30066,1,9,52
1614793103.3127599,1.7917580604553203,1614793103.30385,1614793109.14535,1.55624794960022,1614793109.13936,1614793119.71242,10.2856385707855,1614793119.70997,1614793100.0550199,2.24377298355103,1614793100.05264,0.0411410331726074,1614793102.31305,h024.png,1614793102.3034801,high_cue,2.78974151611328,153.860931899565,FIX,1614793105.12136,1614793105.12119,1614793107.9109302,0,0,0,,,,0,0,Command Recieved: TRIGGER_AND_Response: RESULT_OK,,,1614793110.73844,1614793110.73758,high_stim,3.61823678016663,158.369113163482,FIX,1614793130.0143301,1614793130.01381,1614793133.63205,6,2,5,high_cue,1614793377.12871,1614793377.1226301,398.821971178055,2,1614792978.3013,high_stim,pain,1614792978.30066,1,9,53
1614793146.61203,1.79227685928345,1614793146.6033301,1614793152.42311,4.37344169616699,1614793152.42217,1614793165.8118901,5.385113716125491,1614793165.8104901,1614793134.1998,11.3970050811768,1614793134.1987,0.0421638488769531,1614793145.61188,h020.png,1614793145.6029599,high_cue,3.0902621746063197,140.644622205786,FIX,1614793148.4110699,1614793148.404,1614793151.49426,0,0,0,,,,0,0,Command Recieved: TRIGGER_AND_Response: RESULT_OK,,,1614793156.8394198,1614793156.83863,low_stim,3.1513674259185804,145.91705328649,FIX,1614793171.21268,1614793171.2125099,1614793174.36387,4,2,5,high_cue,1614793377.12871,1614793377.1226301,398.821971178055,2,1614792978.3013,low_stim,pain,1614792978.30066,1,9,54
1614793182.6120002,0.8955209255218509,1614793182.60009,1614793187.53653,9.36034631729126,1614793187.53526,1614793205.91184,1.08682870864868,1614793205.90878,1614793175.24527,6.36503720283508,1614793175.23067,0.0554869174957275,1614793181.6147401,l036.png,1614793181.59971,low_cue,2.18427395820618,78.37301901769399,FIX,1614793183.5178401,1614793183.5171,1614793185.70137,0,0,0,,,,0,0,Command Recieved: TRIGGER_AND_Response: RESULT_OK,,,1614793196.95221,1614793196.95171,med_stim,3.15179991722107,114.69398512804399,FIX,1614793207.01116,1614793207.00919,1614793210.16099,2,2,5,low_cue,1614793377.12871,1614793377.1226301,398.821971178055,2,1614792978.3013,med_stim,pain,1614792978.30066,1,9,55
1614793218.01424,2.18231272697449,1614793218.01329,1614793224.23326,8.963328599929811,1614793224.23228,1614793242.2118402,3.88995909690857,1614793242.20565,1614793211.04553,5.95168256759644,1614793211.0440302,0.0391941070556641,1614793217.01394,l016.png,1614793217.01292,low_cue,1.9342520236969,66.1074976919734,FIX,1614793220.21491,1614793220.21411,1614793222.14836,0,0,0,,,,0,0,Command Recieved: TRIGGER_AND_Response: RESULT_OK,,,1614793233.2360198,1614793233.23549,high_stim,3.43730354309082,125.217592968193,FIX,1614793246.11098,1614793246.1071,1614793249.54441,3,2,5,low_cue,1614793377.12871,1614793377.1226301,398.821971178055,2,1614792978.3013,high_stim,pain,1614792978.30066,1,9,56
1614793256.21185,2.1847357749938996,1614793256.21087,1614793262.4309402,4.3657488822937,1614793262.4298599,1614793275.81188,8.19409680366516,1614793275.8015099,1614793250.12811,5.07044219970703,1614793250.12527,0.0625460147857666,1614793255.21423,l002.png,1614793255.2105,low_cue,1.80088663101196,91.61030060249901,FIX,1614793258.41188,1614793258.41169,1614793260.21258,0,0,0,,,,0,0,Command Recieved: TRIGGER_AND_Response: RESULT_OK,,,1614793266.85943,1614793266.85893,med_stim,1.8897271156311002,89.0796650331509,FIX,1614793284.01119,1614793284.00457,1614793285.8943,2,2,5,low_cue,1614793377.12871,1614793377.1226301,398.821971178055,2,1614792978.3013,med_stim,pain,1614792978.30066,1,9,57
1614793291.61206,1.78820252418518,1614793291.6074,1614793297.42858,4.26936531066895,1614793297.42624,1614793310.71556,3.181077003479,1614793310.71453,1614793288.02837,2.5729751586914102,1614793288.02273,0.0683050155639648,1614793290.6120698,l028.png,1614793290.6070302,low_cue,1.96960973739624,89.76421623012341,FIX,1614793293.41096,1614793293.40808,1614793295.37769,0,0,0,,,,0,0,Command Recieved: TRIGGER_AND_Response: RESULT_OK,,,1614793301.76469,1614793301.76445,low_stim,2.6677978038787797,71.8581216621043,FIX,1614793313.91591,1614793313.91572,1614793316.58352,1,2,5,low_cue,1614793377.12871,1614793377.1226301,398.821971178055,2,1614792978.3013,low_stim,pain,1614792978.30066,1,9,58
1614793326.71207,0.691783905029297,1614793326.70383,1614793331.42307,1.5733563899993899,1614793331.42225,1614793342.01191,3.1860730648040803,1614793342.00953,1614793317.95155,7.745137929916379,1614793317.9505599,0.038405179977417,1614793325.71209,h041.png,1614793325.70345,high_cue,3.2569017410278303,156.620476047223,FIX,1614793327.41114,1614793327.40409,1614793330.66099,0,0,0,,,,0,0,Command Recieved: TRIGGER_AND_Response: RESULT_OK,,,1614793333.03486,1614793333.03457,med_stim,1.93421268463135,97.9974734718038,FIX,1614793345.2111402,1614793345.21073,1614793347.1449401,5,2,5,high_cue,1614793377.12871,1614793377.1226301,398.821971178055,2,1614792978.3013,med_stim,pain,1614792978.30066,1,9,59
1614793352.5151901,1.48215651512146,1614793352.51345,1614793358.03334,3.86343050003052,1614793358.0321698,1614793370.91181,2.19196510314941,1614793370.90364,1614793349.2451901,2.26681399345398,1614793349.22889,0.062964916229248,1614793351.51415,l038.png,1614793351.5130801,low_cue,2.35103321075439,87.6909372109743,FIX,1614793354.01413,1614793354.01401,1614793356.36504,0,0,0,,,,0,0,Command Recieved: TRIGGER_AND_Response: RESULT_OK,,,1614793361.95939,1614793361.95906,high_stim,1.8065025806427,125.993460527559,FIX,1614793373.11104,1614793373.10446,1614793374.91096,3,2,5,low_cue,1614793377.12871,1614793377.1226301,398.821971178055,2,1614792978.3013,high_stim,pain,1614792978.30066,1,9,60
1614793919.11216,1.3917281627655,1614793919.1080801,1614793924.54591,4.55636763572693,1614793924.54344,1614793938.1168199,2.3846404552459703,1614793938.11517,1614793916.21223,1.8934011459350601,1614793916.207,0.0657401084899902,1614793918.1122599,h014.png,1614793918.10771,high_cue,2.2357540130615203,109.529639414775,FIX,1614793920.52776,1614793920.52527,1614793922.7610302,0,0,0,,,,0,0,Command Recieved: TRIGGER_AND_Response: RESULT_OK,,,1614793929.1736698,1614793929.17321,low_stim,2.7011284828186,152.818888914523,FIX,1614793940.5162199,1614793940.5160599,1614793943.21719,4,1,5,high_cue,1614794311.5566401,1614794311.55443,398.135228633881,4,1614793913.4201,low_stim,pain,1614793913.4192,1,9,61
1614793947.42018,0.781172752380371,1614793947.4186401,1614793952.2383199,1.06270837783813,1614793952.2371,1614793962.31196,4.192285060882569,1614793962.30752,1614793944.55182,1.8489933013916,1614793944.5509,0.0553479194641113,1614793946.41928,l010.png,1614793946.4182599,low_cue,2.46779870986938,131.423665625003,FIX,1614793948.21915,1614793948.21894,1614793950.6867301,0,0,0,,,,0,0,Command Recieved: TRIGGER_AND_Response: RESULT_OK,,,1614793953.35619,1614793953.3557801,low_stim,1.83528852462769,132.07265200825898,FIX,1614793966.5112,1614793966.50909,1614793968.3443801,1,1,5,low_cue,1614794311.5566401,1614794311.55443,398.135228633881,4,1614793913.4201,low_stim,pain,1614793913.4192,1,9,62
1614793972.41243,1.08851647377014,1614793972.41129,1614793977.5312,2.56994199752808,1614793977.52987,1614793989.11884,2.5822868347168,1614793989.1175199,1614793970.52849,0.872652292251587,1614793970.52725,0.0479369163513184,1614793971.41174,l053.png,1614793971.41092,low_cue,1.7174611091613798,118.004857388044,FIX,1614793973.512,1614793973.5117,1614793975.22916,0,0,0,,,,0,0,Command Recieved: TRIGGER_AND_Response: RESULT_OK,,,1614793980.14856,1614793980.14827,med_stim,2.20108342170715,145.928390192606,FIX,1614793991.71878,1614793991.7184901,1614793993.91957,2,1,5,low_cue,1614794311.5566401,1614794311.55443,398.135228633881,4,1614793913.4201,med_stim,pain,1614793913.4192,1,9,63
1614793997.81211,2.09571528434753,1614793997.80409,1614794003.94532,9.36009359359741,1614794003.93971,1614794022.31449,2.28657460212708,1614794022.31323,1614793995.74493,1.06325316429138,1614793995.73666,0.0548269748687744,1614793996.81195,l034.png,1614793996.80372,low_cue,1.93949818611145,123.562743781092,FIX,1614793999.92228,1614793999.92155,1614794001.86105,0,0,0,,,,0,0,Command Recieved: TRIGGER_AND_Response: RESULT_OK,,,1614794013.3557198,1614794013.35527,high_stim,2.93468475341797,102.479071801928,FIX,1614794024.61447,1614794024.61409,1614794027.54878,3,1,5,low_cue,1614794311.5566401,1614794311.55443,398.135228633881,4,1614793913.4201,high_stim,pain,1614793913.4192,1,9,64
1614794030.21727,1.38362693786621,1614794030.21618,1614794035.6355698,1.3649404048919698,1614794035.6348698,1614794046.01192,2.2944059371948198,1614794046.0054,1614794028.63326,0.567659854888916,1614794028.6322598,0.033073902130127,1614794029.21675,h053.png,1614794029.21581,high_cue,2.08432459831238,156.014096323205,FIX,1614794031.62786,1614794031.6167,1614794033.70103,0,0,0,,,,0,0,Command Recieved: TRIGGER_AND_Response: RESULT_OK,,,1614794037.03413,1614794037.03359,med_stim,2.52143812179565,150.255118703058,FIX,1614794048.3241,1614794048.32293,1614794050.84437,5,1,5,high_cue,1614794311.5566401,1614794311.55443,398.135228633881,4,1614793913.4201,med_stim,pain,1614793913.4192,1,9,65
1614794054.01189,1.0914213657379201,1614794054.00839,1614794059.12865,5.47284603118896,1614794059.12696,1614794073.6166599,1.38410925865173,1614794073.6157,1614794052.3449,0.658806085586548,1614794052.3411,0.0527400970458984,1614794053.01189,h009.png,1614794053.00801,high_cue,1.8357088565826398,156.831612846503,FIX,1614794055.11116,1614794055.1088,1614794056.94451,0,0,0,,,,0,0,Command Recieved: TRIGGER_AND_Response: RESULT_OK,,,1614794064.6532302,1614794064.65301,high_stim,2.08429479598999,135.97653803576202,FIX,1614794075.01647,1614794075.0162199,1614794077.10052,6,1,5,high_cue,1614794311.5566401,1614794311.55443,398.135228633881,4,1614793913.4201,high_stim,pain,1614793913.4192,1,9,66
1614794082.02038,1.0809762477874798,1614794082.01883,1614794087.13866,6.7623999118804905,1614794087.13741,1614794102.91217,12.1898508071899,1614794102.90996,1614794079.04515,1.9655232429504401,1614794079.03439,0.0524260997772217,1614794081.02108,h001.png,1614794081.01846,high_cue,2.6011507511138903,154.9831065219,FIX,1614794083.1194901,1614794083.11924,1614794085.72039,0,0,0,,,,0,0,Command Recieved: TRIGGER_AND_Response: RESULT_OK,,,1614794093.9533901,1614794093.9529,low_stim,2.7511522769927996,66.1074976919734,FIX,1614794115.1147802,1614794115.11451,1614794117.86566,4,1,5,high_cue,1614794311.5566401,1614794311.55443,398.135228633881,4,1614793913.4201,low_stim,pain,1614793913.4192,1,9,67
1614794127.81164,1.0972359180450402,1614794127.8025699,1614794132.9388099,5.06198573112488,1614794132.93782,1614794147.01215,5.590073108673099,1614794147.00974,1614794119.1456,7.66723799705505,1614794119.13267,0.034221887588501,1614794126.81997,h044.png,1614794126.8188698,high_cue,2.0510191917419403,156.529006881839,FIX,1614794128.9199,1614794128.9196599,1614794130.97068,0,0,0,,,,0,0,Command Recieved: TRIGGER_AND_Response: RESULT_OK,,,1614794138.03496,1614794138.03459,high_stim,1.9175877571106001,155.28920053777,FIX,1614794152.61205,1614794152.61183,1614794154.52941,6,1,5,high_cue,1614794311.5566401,1614794311.55443,398.135228633881,4,1614793913.4201,high_stim,pain,1614793913.4192,1,9,68
1614794158.5151,2.08578276634216,1614794158.51403,1614794164.63422,4.56683421134949,1614794164.6329699,1614794178.21188,4.29510498046875,1614794178.2047,1614794156.64538,0.869906187057495,1614794156.62999,0.029973030090332,1614794157.51455,l051.png,1614794157.51365,low_cue,1.11729288101196,134.510304406871,FIX,1614794160.61494,1614794160.61481,1614794161.7321,0,0,0,,,,0,0,Command Recieved: TRIGGER_AND_Response: RESULT_OK,,,1614794169.23099,1614794169.23054,low_stim,2.20476007461548,122.541753559995,FIX,1614794182.51128,1614794182.50631,1614794184.7110698,1,1,5,low_cue,1614794311.5566401,1614794311.55443,398.135228633881,4,1614793913.4201,low_stim,pain,1614793913.4192,1,9,69
1614794189.51176,2.09089112281799,1614794189.50892,1614794195.62895,1.0719406604766801,1614794195.6278698,1614794205.71609,4.18484616279602,1614794205.7149599,1614794186.52826,1.97546243667603,1614794186.5244699,0.0310261249542236,1614794188.51212,l019.png,1614794188.50855,low_cue,1.4514367580413798,6.44160009933503,FIX,1614794191.61111,1614794191.6097,1614794193.06114,0,0,0,,,,0,0,Command Recieved: TRIGGER_AND_Response: RESULT_OK,,,1614794196.7318802,1614794196.73159,med_stim,1.16730332374573,136.023030188668,FIX,1614794209.91691,1614794209.9165301,1614794211.08383,2,1,5,low_cue,1614794311.5566401,1614794311.55443,398.135228633881,4,1614793913.4201,med_stim,pain,1614793913.4192,1,9,70
1614794232.0119698,1.3917088508606001,1614794232.0081,1614794237.42874,5.57302021980286,1614794237.42679,1614794252.01651,2.6842455863952597,1614794252.01556,1614794213.9453099,17.0652165412903,1614794213.93469,0.0374929904937744,1614794231.01198,l052.png,1614794231.00773,low_cue,1.9357814788818402,142.66047533446599,FIX,1614794233.41125,1614794233.4086199,1614794235.3444,0,0,0,,,,0,0,Command Recieved: TRIGGER_AND_Response: RESULT_OK,,,1614794243.03904,1614794243.03808,high_stim,1.78420186042786,129.12737171893298,FIX,1614794254.71682,1614794254.71657,1614794256.5007699,3,1,5,low_cue,1614794311.5566401,1614794311.55443,398.135228633881,4,1614793913.4201,high_stim,pain,1614793913.4192,1,9,71
1614794276.7121198,2.09170436859131,1614794276.7081,1614794282.82855,6.072757005691531,1614794282.82705,1614794297.91749,9.58379650115967,1614794297.91601,1614794258.7451198,16.9651758670807,1614794258.73473,0.0601611137390137,1614794275.7121,h039.png,1614794275.70773,high_cue,2.5855848789215097,146.118734809385,FIX,1614794278.8111699,1614794278.80889,1614794281.39447,0,0,0,,,,0,0,Command Recieved: TRIGGER_AND_Response: RESULT_OK,,,1614794288.96112,1614794288.96081,med_stim,2.5344443321227996,155.613628898199,FIX,1614794307.5199099,1614794307.5195901,1614794310.05404,5,1,5,high_cue,1614794311.5566401,1614794311.55443,398.135228633881,4,1614793913.4201,med_stim,pain,1614793913.4192,1,9,72
