onset	duration	trial_type	trial_index	cue	stimulusintensity	rating_value	rating_glmslabel	rating_value_fillna	rating_glmslabel_fillna	rating_mouseonset	rating_mousedur	stim_file
3.91	0.99	cue	1	high_cue	n/a	n/a	n/a	n/a	n/a	n/a	n/a	h050.png
33.6	0.99	cue	2	low_cue	n/a	n/a	n/a	n/a	n/a	n/a	n/a	l018.png
65.12	0.98	cue	3	high_cue	n/a	n/a	n/a	n/a	n/a	n/a	n/a	h046.png
87.51	0.99	cue	4	low_cue	n/a	n/a	n/a	n/a	n/a	n/a	n/a	l051.png
124.31	0.99	cue	5	high_cue	n/a	n/a	n/a	n/a	n/a	n/a	n/a	h024.png
150.41	0.98	cue	6	low_cue	n/a	n/a	n/a	n/a	n/a	n/a	n/a	l019.png
183.51	0.99	cue	7	low_cue	n/a	n/a	n/a	n/a	n/a	n/a	n/a	l020.png
223.41	0.99	cue	8	low_cue	n/a	n/a	n/a	n/a	n/a	n/a	n/a	l048.png
259.31	0.99	cue	9	high_cue	n/a	n/a	n/a	n/a	n/a	n/a	n/a	h017.png
294.1	0.99	cue	10	low_cue	n/a	n/a	n/a	n/a	n/a	n/a	n/a	l032.png
331.12	0.98	cue	11	high_cue	n/a	n/a	n/a	n/a	n/a	n/a	n/a	h016.png
369.61	0.98	cue	12	high_cue	n/a	n/a	n/a	n/a	n/a	n/a	n/a	h032.png
6.14	2.9	expectrating	1	high_cue	n/a	52.04	Strong	52.04	Strong	0.55	2.35	h050.png
36.02	3.39	expectrating	2	low_cue	n/a	3.22	Weak	3.22	Weak	1.48	1.9	l018.png
67.32		expectrating	3	high_cue	n/a			23.87	Moderate	1.07	3.62	h046.png
91.03	1.73	expectrating	4	low_cue	n/a	16.83	Moderate	16.83	Moderate	0.35	1.38	l051.png
126.02	2.1	expectrating	5	high_cue	n/a	19.92	Moderate	19.92	Moderate	0.33	1.77	h024.png
153.92	2.35	expectrating	6	low_cue	n/a	38.7	Strong	38.7	Strong	0.35	2.0	l019.png
185.71	1.77	expectrating	7	low_cue	n/a	16.98	Moderate	16.98	Moderate	0.45	1.32	l020.png
225.61	2.77	expectrating	8	low_cue	n/a	14.87	Moderate	14.87	Moderate	0.78	1.98	l048.png
262.81	2.84	expectrating	9	high_cue	n/a	27.7	Moderate	27.7	Moderate	0.58	2.25	h017.png
296.52	2.59	expectrating	10	low_cue	n/a	20.94	Moderate	20.94	Moderate	0.68	1.91	l032.png
333.52	3.01	expectrating	11	high_cue	n/a	42.08	Strong	42.08	Strong	1.4	1.61	h016.png
371.61	3.52	expectrating	12	high_cue	n/a	63.43	Strong	63.43	Strong	0.52	3.0	h032.png
16.8	7.0	stimulus	1	high_cue	low_stim	n/a	n/a	n/a	n/a	n/a	n/a	bm049t1afaff_L.mp4
49.8	7.01	stimulus	2	low_cue	med_stim	n/a	n/a	n/a	n/a	n/a	n/a	vw121t1aiaff_M.mp4
73.9	7.01	stimulus	3	high_cue	low_stim	n/a	n/a	n/a	n/a	n/a	n/a	ch092t2aeaff_L.mp4
106.0	7.0	stimulus	4	low_cue	med_stim	n/a	n/a	n/a	n/a	n/a	n/a	bn080t1aeaff_M.mp4
132.6	7.01	stimulus	5	high_cue	high_stim	n/a	n/a	n/a	n/a	n/a	n/a	bg096t1aeaff_H.mp4
161.7	7.01	stimulus	6	low_cue	low_stim	n/a	n/a	n/a	n/a	n/a	n/a	jk103t1aaunaff_L.mp4
199.9	7.0	stimulus	7	low_cue	high_stim	n/a	n/a	n/a	n/a	n/a	n/a	ib109t1aiaff_H.mp4
232.2	7.02	stimulus	8	low_cue	low_stim	n/a	n/a	n/a	n/a	n/a	n/a	vw121t1aeaff_L.mp4
277.8	7.02	stimulus	9	high_cue	high_stim	n/a	n/a	n/a	n/a	n/a	n/a	bm049t2aeunaff_H.mp4
304.1	7.01	stimulus	10	low_cue	high_stim	n/a	n/a	n/a	n/a	n/a	n/a	jk103t1aaaff_H.mp4
342.8	7.01	stimulus	11	high_cue	med_stim	n/a	n/a	n/a	n/a	n/a	n/a	bg096t2aaaff_M.mp4
384.6	7.01	stimulus	12	high_cue	med_stim	n/a	n/a	n/a	n/a	n/a	n/a	ch092t2aaaff_M.mp4
29.02	2.42	outcomerating	1	high_cue	low_stim	10.35	Moderate	10.35	Moderate	0.72	1.71	task-vicarious_scale.png
59.91	1.92	outcomerating	2	low_cue	med_stim	3.1	Weak	3.1	Weak	0.4	1.52	task-vicarious_scale.png
82.42	2.17	outcomerating	3	high_cue	low_stim	2.99	Barely detectable	2.99	Barely detectable	0.37	1.8	task-vicarious_scale.png
119.22	2.39	outcomerating	4	low_cue	med_stim	4.42	Weak	4.42	Weak	0.4	1.99	task-vicarious_scale.png
145.81	1.78	outcomerating	5	high_cue	high_stim	26.46	Moderate	26.46	Moderate	0.4	1.38	task-vicarious_scale.png
173.92	3.92	outcomerating	6	low_cue	low_stim	4.9	Weak	4.9	Weak	0.58	3.34	task-vicarious_scale.png
213.22	2.29	outcomerating	7	low_cue	high_stim	5.55	Weak	5.55	Weak	0.48	1.8	task-vicarious_scale.png
245.52	2.29	outcomerating	8	low_cue	low_stim	8.29	Weak	8.29	Weak	0.43	1.86	task-vicarious_scale.png
287.92	2.47	outcomerating	9	high_cue	high_stim	19.96	Moderate	19.96	Moderate	0.43	2.03	task-vicarious_scale.png
312.63	1.85	outcomerating	10	low_cue	high_stim	34.71	Strong	34.71	Strong	0.42	1.43	task-vicarious_scale.png
355.82	2.58	outcomerating	11	high_cue	med_stim	57.33	Strong	57.33	Strong	0.42	2.17	task-vicarious_scale.png
394.82	2.4	outcomerating	12	high_cue	med_stim	13.98	Moderate	13.98	Moderate	0.38	2.02	task-vicarious_scale.png
