onset	duration	trial_type	trial_index	cue	stimulusintensity	rating_value	rating_glmslabel	rating_value_fillna	rating_glmslabel_fillna	rating_mouseonset	rating_mousedur	stim_file
3.39	0.98	cue	1	low_cue	n/a	n/a	n/a	n/a	n/a	n/a	n/a	l026.png
45.99	0.98	cue	2	high_cue	n/a	n/a	n/a	n/a	n/a	n/a	n/a	h018.png
80.69	0.99	cue	3	low_cue	n/a	n/a	n/a	n/a	n/a	n/a	n/a	l045.png
110.28	0.99	cue	4	low_cue	n/a	n/a	n/a	n/a	n/a	n/a	n/a	l022.png
143.79	0.98	cue	5	high_cue	n/a	n/a	n/a	n/a	n/a	n/a	n/a	h035.png
171.29	0.99	cue	6	high_cue	n/a	n/a	n/a	n/a	n/a	n/a	n/a	h042.png
201.08	0.99	cue	7	high_cue	n/a	n/a	n/a	n/a	n/a	n/a	n/a	h004.png
234.78	1.0	cue	8	low_cue	n/a	n/a	n/a	n/a	n/a	n/a	n/a	l051.png
265.09	0.98	cue	9	low_cue	n/a	n/a	n/a	n/a	n/a	n/a	n/a	l048.png
295.48	0.99	cue	10	low_cue	n/a	n/a	n/a	n/a	n/a	n/a	n/a	l050.png
337.88	0.99	cue	11	high_cue	n/a	n/a	n/a	n/a	n/a	n/a	n/a	h016.png
362.59	0.98	cue	12	high_cue	n/a	n/a	n/a	n/a	n/a	n/a	n/a	h039.png
6.13	3.27	expectrating	1	low_cue	n/a	11.85	Moderate	11.85	Moderate	0.9	2.37	l026.png
49.09	2.0	expectrating	2	high_cue	n/a	25.43	Moderate	25.43	Moderate	0.53	1.47	h018.png
83.8	2.39	expectrating	3	low_cue	n/a	7.15	Weak	7.15	Weak	0.58	1.8	l045.png
111.78	2.95	expectrating	4	low_cue	n/a	18.94	Moderate	18.94	Moderate	0.52	2.43	l022.png
146.89	2.63	expectrating	5	high_cue	n/a	13.31	Moderate	13.31	Moderate	0.82	1.82	h035.png
173.29		expectrating	6	high_cue	n/a					0.27	1.38	h042.png
203.08	1.86	expectrating	7	high_cue	n/a	18.87	Moderate	18.87	Moderate	0.78	1.08	h004.png
237.29	1.78	expectrating	8	low_cue	n/a	15.15	Moderate	15.15	Moderate	0.67	1.12	l051.png
268.19	1.58	expectrating	9	low_cue	n/a	20.18	Moderate	20.18	Moderate	0.42	1.17	l048.png
297.38	2.04	expectrating	10	low_cue	n/a	8.1	Weak	8.1	Weak	0.57	1.47	l050.png
340.58	3.34	expectrating	11	high_cue	n/a	31.08	Strong	31.08	Strong	1.1	2.24	h016.png
364.79	2.6	expectrating	12	high_cue	n/a	51.52	Strong	51.52	Strong	0.65	1.95	h039.png
18.48	7.01	stimulus	1	low_cue	high_stim	n/a	n/a	n/a	n/a	n/a	n/a	kz120t2aaaff_H.mp4
59.58	7.0	stimulus	2	high_cue	med_stim	n/a	n/a	n/a	n/a	n/a	n/a	jh123t2aaaff_M.mp4
90.28	7.02	stimulus	3	low_cue	low_stim	n/a	n/a	n/a	n/a	n/a	n/a	aa048t2aaunaff_L.mp4
118.58	7.01	stimulus	4	low_cue	low_stim	n/a	n/a	n/a	n/a	n/a	n/a	kz120t2aaunaff_L.mp4
156.58	7.0	stimulus	5	high_cue	low_stim	n/a	n/a	n/a	n/a	n/a	n/a	jh123t1aaunaff_L.mp4
179.78	7.0	stimulus	6	high_cue	med_stim	n/a	n/a	n/a	n/a	n/a	n/a	kz120t2aeaff_M.mp4
216.08	7.01	stimulus	7	high_cue	low_stim	n/a	n/a	n/a	n/a	n/a	n/a	tv095t2aeunaff_L.mp4
251.28	7.01	stimulus	8	low_cue	high_stim	n/a	n/a	n/a	n/a	n/a	n/a	mg066t1aaaff_H.mp4
279.88	7.0	stimulus	9	low_cue	med_stim	n/a	n/a	n/a	n/a	n/a	n/a	dr052t2aaaff_M.mp4
311.08	7.02	stimulus	10	low_cue	med_stim	n/a	n/a	n/a	n/a	n/a	n/a	th108t2aaunaff_M.mp4
347.97	7.01	stimulus	11	high_cue	high_stim	n/a	n/a	n/a	n/a	n/a	n/a	tv095t1afaff_H.mp4
378.48	7.01	stimulus	12	high_cue	high_stim	n/a	n/a	n/a	n/a	n/a	n/a	aa048t2aeaff_H.mp4
32.6	2.07	outcomerating	1	low_cue	high_stim	11.59	Moderate	11.59	Moderate	0.47	1.61	task-vicarious_scale.png
76.0	2.37	outcomerating	2	high_cue	med_stim	4.84	Weak	4.84	Weak	0.52	1.86	task-vicarious_scale.png
97.79	1.45	outcomerating	3	low_cue	low_stim	0.0		0.0		0.57	0.88	task-vicarious_scale.png
134.69	1.8	outcomerating	4	low_cue	low_stim	3.26	Weak	3.26	Weak	0.47	1.33	task-vicarious_scale.png
166.6	2.51	outcomerating	5	high_cue	low_stim	8.07	Weak	8.07	Weak	0.43	2.07	task-vicarious_scale.png
189.59	1.48	outcomerating	6	high_cue	med_stim	4.61	Weak	4.61	Weak	0.38	1.1	task-vicarious_scale.png
226.69	1.9	outcomerating	7	high_cue	low_stim	19.67	Moderate	19.67	Moderate	0.4	1.5	task-vicarious_scale.png
260.39	2.79	outcomerating	8	low_cue	high_stim	28.32	Moderate	28.32	Moderate	0.6	2.19	task-vicarious_scale.png
290.0	2.02	outcomerating	9	low_cue	med_stim	10.03	Moderate	10.03	Moderate	0.55	1.47	task-vicarious_scale.png
321.69	1.18	outcomerating	10	low_cue	med_stim	0.0		0.0		0.45	0.73	task-vicarious_scale.png
355.49	1.92	outcomerating	11	high_cue	high_stim	60.08	Strong	60.08	Strong	0.83	1.09	task-vicarious_scale.png
394.59	3.14	outcomerating	12	high_cue	high_stim	15.38	Moderate	15.38	Moderate	0.63	2.5	task-vicarious_scale.png
