onset	duration	trial_type	trial_index	cue	stimulusintensity	rating_value	rating_glmslabel	rating_value_fillna	rating_glmslabel_fillna	rating_mouseonset	rating_mousedur	stim_file	correct_response	participant_response	response_accuracy
3.9	0.99	cue	1	high_cue	n/a	n/a	n/a	n/a	n/a	n/a	n/a	h019.png	n/a	n/a	n/a
36.19	0.99	cue	2	low_cue	n/a	n/a	n/a	n/a	n/a	n/a	n/a	l038.png	n/a	n/a	n/a
63.6	0.98	cue	3	high_cue	n/a	n/a	n/a	n/a	n/a	n/a	n/a	h033.png	n/a	n/a	n/a
103.5	0.98	cue	4	low_cue	n/a	n/a	n/a	n/a	n/a	n/a	n/a	l019.png	n/a	n/a	n/a
139.0	0.99	cue	5	high_cue	n/a	n/a	n/a	n/a	n/a	n/a	n/a	h009.png	n/a	n/a	n/a
190.6	0.98	cue	6	low_cue	n/a	n/a	n/a	n/a	n/a	n/a	n/a	l029.png	n/a	n/a	n/a
219.2	0.99	cue	7	low_cue	n/a	n/a	n/a	n/a	n/a	n/a	n/a	l052.png	n/a	n/a	n/a
252.59	0.99	cue	8	high_cue	n/a	n/a	n/a	n/a	n/a	n/a	n/a	h005.png	n/a	n/a	n/a
281.7	0.98	cue	9	high_cue	n/a	n/a	n/a	n/a	n/a	n/a	n/a	h023.png	n/a	n/a	n/a
312.2	0.99	cue	10	low_cue	n/a	n/a	n/a	n/a	n/a	n/a	n/a	l010.png	n/a	n/a	n/a
348.79	0.99	cue	11	high_cue	n/a	n/a	n/a	n/a	n/a	n/a	n/a	h046.png	n/a	n/a	n/a
375.6	0.98	cue	12	low_cue	n/a	n/a	n/a	n/a	n/a	n/a	n/a	l033.png	n/a	n/a	n/a
5.73	2.46	expectrating	1	high_cue	n/a	33.69	Strong	33.69	Strong	0.4	2.06	h019.png	n/a	n/a	n/a
38.69	2.31	expectrating	2	low_cue	n/a	38.95	Strong	38.95	Strong	0.43	1.88	l038.png	n/a	n/a	n/a
66.11	2.08	expectrating	3	high_cue	n/a	27.78	Moderate	27.78	Moderate	0.62	1.47	h033.png	n/a	n/a	n/a
106.0	2.33	expectrating	4	low_cue	n/a	14.77	Moderate	14.77	Moderate	0.57	1.77	l019.png	n/a	n/a	n/a
142.9	1.97	expectrating	5	high_cue	n/a	38.16	Strong	38.16	Strong	0.98	0.99	h009.png	n/a	n/a	n/a
193.0	2.29	expectrating	6	low_cue	n/a	27.71	Moderate	27.71	Moderate	1.05	1.24	l029.png	n/a	n/a	n/a
221.0	2.68	expectrating	7	low_cue	n/a	22.87	Moderate	22.87	Moderate	0.07	2.61	l052.png	n/a	n/a	n/a
254.21	1.7	expectrating	8	high_cue	n/a	17.78	Moderate	17.78	Moderate	0.33	1.37	h005.png	n/a	n/a	n/a
283.3	1.45	expectrating	9	high_cue	n/a	19.67	Moderate	19.67	Moderate	0.6	0.85	h023.png	n/a	n/a	n/a
316.1	2.04	expectrating	10	low_cue	n/a	36.04	Strong	36.04	Strong	0.07	1.97	l010.png	n/a	n/a	n/a
350.49	3.08	expectrating	11	high_cue	n/a	60.97	Strong	60.97	Strong	0.75	2.33	h046.png	n/a	n/a	n/a
379.51	1.22	expectrating	12	low_cue	n/a	27.18	Moderate	27.18	Moderate	0.23	0.98	l033.png	n/a	n/a	n/a
19.6	7.0	stimulus	1	high_cue	med_stim	n/a	n/a	n/a	n/a	n/a	n/a	43_100_R.jpg	diff		False
45.6	7.0	stimulus	2	low_cue	med_stim	n/a	n/a	n/a	n/a	n/a	n/a	39_100.jpg	same	same	True
77.79	7.0	stimulus	3	high_cue	low_stim	n/a	n/a	n/a	n/a	n/a	n/a	31_50.jpg	same	same	True
118.91	6.99	stimulus	4	low_cue	med_stim	n/a	n/a	n/a	n/a	n/a	n/a	41_100.jpg	same		False
157.51	7.0	stimulus	5	high_cue	high_stim	n/a	n/a	n/a	n/a	n/a	n/a	17_150.jpg	same	same	True
203.51	6.99	stimulus	6	low_cue	low_stim	n/a	n/a	n/a	n/a	n/a	n/a	12_50.jpg	same	same	True
231.4	7.0	stimulus	7	low_cue	high_stim	n/a	n/a	n/a	n/a	n/a	n/a	17_150_R.jpg	diff	diff	True
263.6	7.0	stimulus	8	high_cue	med_stim	n/a	n/a	n/a	n/a	n/a	n/a	17_100.jpg	same	same	True
290.21	6.99	stimulus	9	high_cue	low_stim	n/a	n/a	n/a	n/a	n/a	n/a	4_50_R.jpg	diff	diff	True
330.7	6.99	stimulus	10	low_cue	high_stim	n/a	n/a	n/a	n/a	n/a	n/a	29_150_R.jpg	diff		False
357.2	7.0	stimulus	11	high_cue	high_stim	n/a	n/a	n/a	n/a	n/a	n/a	6_150.jpg	same	same	True
387.19	7.0	stimulus	12	low_cue	low_stim	n/a	n/a	n/a	n/a	n/a	n/a	43_50.jpg	same	same	True
30.31	3.14	outcomerating	1	high_cue	med_stim	35.09	Strong	35.09	Strong	0.83	2.3	task-cognitive_scale.png	n/a	n/a	n/a
56.3	2.3	outcomerating	2	low_cue	med_stim	20.8	Moderate	20.8	Moderate	0.8	1.5	task-cognitive_scale.png	n/a	n/a	n/a
90.91	2.02	outcomerating	3	high_cue	low_stim	13.31	Moderate	13.31	Moderate	0.62	1.41	task-cognitive_scale.png	n/a	n/a	n/a
131.8	2.84	outcomerating	4	low_cue	med_stim	66.13	Very Strong	66.13	Very Strong	0.63	2.21	task-cognitive_scale.png	n/a	n/a	n/a
170.31	2.3	outcomerating	5	high_cue	high_stim	20.44	Moderate	20.44	Moderate	0.9	1.4	task-cognitive_scale.png	n/a	n/a	n/a
212.11	1.95	outcomerating	6	low_cue	low_stim	6.44	Weak	6.44	Weak	0.68	1.27	task-cognitive_scale.png	n/a	n/a	n/a
243.5		outcomerating	7	low_cue	high_stim			12.63	Moderate	2.05	1.37	task-cognitive_scale.png	n/a	n/a	n/a
273.5	2.76	outcomerating	8	high_cue	med_stim	27.6	Moderate	27.6	Moderate	0.58	2.17	task-cognitive_scale.png	n/a	n/a	n/a
307.1	2.53	outcomerating	9	high_cue	low_stim	29.5	Strong	29.5	Strong	0.93	1.6	task-cognitive_scale.png	n/a	n/a	n/a
342.01	2.95	outcomerating	10	low_cue	high_stim	61.98	Strong	61.98	Strong	0.88	2.07	task-cognitive_scale.png	n/a	n/a	n/a
368.3	3.34	outcomerating	11	high_cue	high_stim	24.71	Moderate	24.71	Moderate	0.98	2.35	task-cognitive_scale.png	n/a	n/a	n/a
395.29	2.03	outcomerating	12	low_cue	low_stim	10.45	Moderate	10.45	Moderate	0.58	1.44	task-cognitive_scale.png	n/a	n/a	n/a
