onset	duration	trial_type	trial_index	cue	stimulusintensity	rating_value	rating_glmslabel	rating_value_fillna	rating_glmslabel_fillna	rating_mouseonset	rating_mousedur	stim_file
14.21	0.98	cue	1	low_cue	n/a	n/a	n/a	n/a	n/a	n/a	n/a	l005.png
40.61	0.99	cue	2	low_cue	n/a	n/a	n/a	n/a	n/a	n/a	n/a	l026.png
72.2	0.99	cue	3	high_cue	n/a	n/a	n/a	n/a	n/a	n/a	n/a	h052.png
109.0	0.99	cue	4	low_cue	n/a	n/a	n/a	n/a	n/a	n/a	n/a	l037.png
145.12	0.98	cue	5	high_cue	n/a	n/a	n/a	n/a	n/a	n/a	n/a	h013.png
171.41	0.99	cue	6	low_cue	n/a	n/a	n/a	n/a	n/a	n/a	n/a	l053.png
199.81	0.99	cue	7	low_cue	n/a	n/a	n/a	n/a	n/a	n/a	n/a	l047.png
236.81	0.99	cue	8	high_cue	n/a	n/a	n/a	n/a	n/a	n/a	n/a	h003.png
264.22	0.98	cue	9	high_cue	n/a	n/a	n/a	n/a	n/a	n/a	n/a	h029.png
298.41	0.98	cue	10	high_cue	n/a	n/a	n/a	n/a	n/a	n/a	n/a	h037.png
336.01	0.99	cue	11	high_cue	n/a	n/a	n/a	n/a	n/a	n/a	n/a	h007.png
367.01	0.99	cue	12	low_cue	n/a	n/a	n/a	n/a	n/a	n/a	n/a	l002.png
16.01	1.72	expectrating	1	low_cue	n/a	2.79	Barely detectable	2.79	Barely detectable	0.58	1.14	l005.png
43.61	1.77	expectrating	2	low_cue	n/a	0.0		0.0		0.35	1.42	l026.png
75.21	2.12	expectrating	3	high_cue	n/a	12.8	Moderate	12.8	Moderate	0.75	1.37	h052.png
110.92	1.82	expectrating	4	low_cue	n/a	0.23	No sensation	0.23	No sensation	0.53	1.28	l037.png
146.82	2.52	expectrating	5	high_cue	n/a	9.95	Weak	9.95	Weak	0.67	1.85	h013.png
174.51	2.63	expectrating	6	low_cue	n/a	1.38	Barely detectable	1.38	Barely detectable	0.77	1.86	l053.png
202.81	2.45	expectrating	7	low_cue	n/a	3.38	Weak	3.38	Weak	0.67	1.78	l047.png
238.51	2.94	expectrating	8	high_cue	n/a	7.13	Weak	7.13	Weak	0.82	2.12	h003.png
267.22	2.25	expectrating	9	high_cue	n/a	10.35	Moderate	10.35	Moderate	0.55	1.7	h029.png
301.21	2.9	expectrating	10	high_cue	n/a	6.47	Weak	6.47	Weak	0.9	2.0	h037.png
338.91	1.75	expectrating	11	high_cue	n/a	4.49	Weak	4.49	Weak	0.48	1.27	h007.png
368.91	1.59	expectrating	12	low_cue	n/a	0.0		0.0		0.55	1.04	l002.png
22.6	7.0	stimulus	1	low_cue	low_stim	n/a	n/a	n/a	n/a	n/a	n/a	dr052t1aeunaff_L.mp4
50.2	7.01	stimulus	2	low_cue	med_stim	n/a	n/a	n/a	n/a	n/a	n/a	bg096t2aaaff_M.mp4
86.1	7.01	stimulus	3	high_cue	med_stim	n/a	n/a	n/a	n/a	n/a	n/a	aa048t2afunaff_M.mp4
120.3	7.01	stimulus	4	low_cue	high_stim	n/a	n/a	n/a	n/a	n/a	n/a	aa048t2aeaff_H.mp4
155.31	7.0	stimulus	5	high_cue	med_stim	n/a	n/a	n/a	n/a	n/a	n/a	dr052t2aaaff_M.mp4
182.7	7.0	stimulus	6	low_cue	high_stim	n/a	n/a	n/a	n/a	n/a	n/a	dr052t1aiaff_H.mp4
218.2	7.02	stimulus	7	low_cue	low_stim	n/a	n/a	n/a	n/a	n/a	n/a	jl047t1aaunaff_L.mp4
245.3	7.01	stimulus	8	high_cue	high_stim	n/a	n/a	n/a	n/a	n/a	n/a	nm106t1afaff_H.mp4
279.5	7.01	stimulus	9	high_cue	high_stim	n/a	n/a	n/a	n/a	n/a	n/a	bg096t1aeaff_H.mp4
321.9	7.01	stimulus	10	high_cue	low_stim	n/a	n/a	n/a	n/a	n/a	n/a	ll042t1aaunaff_L.mp4
345.7	7.0	stimulus	11	high_cue	low_stim	n/a	n/a	n/a	n/a	n/a	n/a	aa048t2aaunaff_L.mp4
382.5	7.0	stimulus	12	low_cue	med_stim	n/a	n/a	n/a	n/a	n/a	n/a	ll042t1afunaff_M.mp4
35.32	2.13	outcomerating	1	low_cue	low_stim	2.78	Barely detectable	2.78	Barely detectable	0.5	1.63	task-vicarious_scale.png
63.72	2.58	outcomerating	2	low_cue	med_stim	23.77	Moderate	23.77	Moderate	0.45	2.13	task-vicarious_scale.png
95.91	1.56	outcomerating	3	high_cue	med_stim	0.0		0.0		0.4	1.16	task-vicarious_scale.png
130.51	3.33	outcomerating	4	low_cue	high_stim	3.58	Weak	3.58	Weak	0.48	2.84	task-vicarious_scale.png
166.53	1.75	outcomerating	5	high_cue	med_stim	0.0		0.0		0.47	1.28	task-vicarious_scale.png
194.52	2.17	outcomerating	6	low_cue	high_stim	29.55	Strong	29.55	Strong	0.65	1.52	task-vicarious_scale.png
231.12	1.85	outcomerating	7	low_cue	low_stim	0.0		0.0		0.65	1.2	task-vicarious_scale.png
255.51	3.18	outcomerating	8	high_cue	high_stim	18.58	Moderate	18.58	Moderate	0.63	2.55	task-vicarious_scale.png
290.53	2.77	outcomerating	9	high_cue	high_stim	34.07	Strong	34.07	Strong	0.58	2.18	task-vicarious_scale.png
331.13	1.72	outcomerating	10	high_cue	low_stim	10.53	Moderate	10.53	Moderate	0.5	1.22	task-vicarious_scale.png
359.42	2.41	outcomerating	11	high_cue	low_stim	0.0		0.0		0.62	1.79	task-vicarious_scale.png
394.52	3.53	outcomerating	12	low_cue	med_stim	3.45	Weak	3.45	Weak	0.65	2.88	task-vicarious_scale.png
