onset	duration	trial_type	trial_index	cue	stimulusintensity	rating_value	rating_glmslabel	rating_value_fillna	rating_glmslabel_fillna	rating_mouseonset	rating_mousedur	stim_file
9.79	0.99	cue	1	high_cue	n/a	n/a	n/a	n/a	n/a	n/a	n/a	h025.png
41.5	0.98	cue	2	high_cue	n/a	n/a	n/a	n/a	n/a	n/a	n/a	h050.png
67.39	0.99	cue	3	low_cue	n/a	n/a	n/a	n/a	n/a	n/a	n/a	l047.png
96.79	0.99	cue	4	high_cue	n/a	n/a	n/a	n/a	n/a	n/a	n/a	h012.png
128.4	0.98	cue	5	high_cue	n/a	n/a	n/a	n/a	n/a	n/a	n/a	h045.png
171.0	0.98	cue	6	low_cue	n/a	n/a	n/a	n/a	n/a	n/a	n/a	l030.png
198.29	0.99	cue	7	low_cue	n/a	n/a	n/a	n/a	n/a	n/a	n/a	l032.png
234.89	0.99	cue	8	low_cue	n/a	n/a	n/a	n/a	n/a	n/a	n/a	l033.png
262.2	0.98	cue	9	high_cue	n/a	n/a	n/a	n/a	n/a	n/a	n/a	h001.png
291.09	0.99	cue	10	low_cue	n/a	n/a	n/a	n/a	n/a	n/a	n/a	l023.png
336.59	0.99	cue	11	high_cue	n/a	n/a	n/a	n/a	n/a	n/a	n/a	h023.png
371.59	0.99	cue	12	low_cue	n/a	n/a	n/a	n/a	n/a	n/a	n/a	l035.png
12.5	1.97	expectrating	1	high_cue	n/a	57.46	Strong	57.46	Strong	0.05	1.92	h025.png
43.0	2.0	expectrating	2	high_cue	n/a	62.4	Strong	62.4	Strong	0.5	1.5	h050.png
69.49	2.25	expectrating	3	low_cue	n/a	14.89	Moderate	14.89	Moderate	0.43	1.82	l047.png
100.7	2.28	expectrating	4	high_cue	n/a	78.02	Very Strong	78.02	Very Strong	0.5	1.78	h012.png
132.3	1.79	expectrating	5	high_cue	n/a	82.41	Very Strong	82.41	Very Strong	0.62	1.17	h045.png
174.9	2.99	expectrating	6	low_cue	n/a	21.63	Moderate	21.63	Moderate	0.05	2.94	l030.png
199.79	2.49	expectrating	7	low_cue	n/a	26.03	Moderate	26.03	Moderate	0.65	1.84	l032.png
236.99	1.68	expectrating	8	low_cue	n/a	8.3	Weak	8.3	Weak	0.53	1.15	l033.png
264.9	2.14	expectrating	9	high_cue	n/a	92.69	Very Strong	92.69	Very Strong	0.82	1.32	h001.png
293.29	2.01	expectrating	10	low_cue	n/a	31.56	Strong	31.56	Strong	0.68	1.33	l023.png
338.29	1.84	expectrating	11	high_cue	n/a	87.9	Very Strong	87.9	Very Strong	0.42	1.43	h023.png
373.39	1.27	expectrating	12	low_cue	n/a	26.88	Moderate	26.88	Moderate	0.43	0.83	l035.png
24.18	7.01	stimulus	1	high_cue	med_stim	n/a	n/a	n/a	n/a	n/a	n/a	ak064t1aiaff_M.mp4
51.08	7.01	stimulus	2	high_cue	high_stim	n/a	n/a	n/a	n/a	n/a	n/a	dn124t1aiaff_H.mp4
77.68	7.02	stimulus	3	low_cue	high_stim	n/a	n/a	n/a	n/a	n/a	n/a	dr052t1aiaff_H.mp4
110.88	7.01	stimulus	4	high_cue	low_stim	n/a	n/a	n/a	n/a	n/a	n/a	jh123t1aaunaff_L.mp4
146.99	7.0	stimulus	5	high_cue	med_stim	n/a	n/a	n/a	n/a	n/a	n/a	kz120t2aeaff_M.mp4
181.78	7.0	stimulus	6	low_cue	low_stim	n/a	n/a	n/a	n/a	n/a	n/a	dr052t1aeunaff_L.mp4
210.08	7.01	stimulus	7	low_cue	med_stim	n/a	n/a	n/a	n/a	n/a	n/a	dr052t2aaaff_M.mp4
246.28	7.01	stimulus	8	low_cue	med_stim	n/a	n/a	n/a	n/a	n/a	n/a	jh123t2aaaff_M.mp4
274.18	7.01	stimulus	9	high_cue	high_stim	n/a	n/a	n/a	n/a	n/a	n/a	jh123t1aeaff_H.mp4
307.98	7.0	stimulus	10	low_cue	low_stim	n/a	n/a	n/a	n/a	n/a	n/a	dn124t1aaunaff_L.mp4
353.98	7.0	stimulus	11	high_cue	low_stim	n/a	n/a	n/a	n/a	n/a	n/a	aa048t2aaunaff_L.mp4
380.28	7.01	stimulus	12	low_cue	high_stim	n/a	n/a	n/a	n/a	n/a	n/a	ll042t1aiaff_H.mp4
33.0	1.94	outcomerating	1	high_cue	med_stim	49.63	Strong	49.63	Strong	0.22	1.72	task-vicarious_scale.png
59.51	1.32	outcomerating	2	high_cue	high_stim	83.05	Very Strong	83.05	Very Strong	0.13	1.18	task-vicarious_scale.png
87.5	2.44	outcomerating	3	low_cue	high_stim	71.79	Very Strong	71.79	Very Strong	0.32	2.12	task-vicarious_scale.png
119.29	1.47	outcomerating	4	high_cue	low_stim	26.98	Moderate	26.98	Moderate	0.35	1.12	task-vicarious_scale.png
156.81	1.42	outcomerating	5	high_cue	med_stim	9.85	Weak	9.85	Weak	0.47	0.95	task-vicarious_scale.png
191.7	1.95	outcomerating	6	low_cue	low_stim	14.93	Moderate	14.93	Moderate	0.73	1.22	task-vicarious_scale.png
228.9	1.87	outcomerating	7	low_cue	med_stim	23.68	Moderate	23.68	Moderate	0.43	1.43	task-vicarious_scale.png
256.2	1.47	outcomerating	8	low_cue	med_stim	29.37	Strong	29.37	Strong	0.43	1.04	task-vicarious_scale.png
285.81	1.9	outcomerating	9	high_cue	high_stim	34.65	Strong	34.65	Strong	0.72	1.18	task-vicarious_scale.png
323.0	2.13	outcomerating	10	low_cue	low_stim	24.71	Moderate	24.71	Moderate	0.23	1.9	task-vicarious_scale.png
367.1	2.92	outcomerating	11	high_cue	low_stim	56.82	Strong	56.82	Strong	0.38	2.53	task-vicarious_scale.png
394.8	2.44	outcomerating	12	low_cue	high_stim	28.35	Moderate	28.35	Moderate	0.58	1.85	task-vicarious_scale.png
