onset	duration	trial_type	trial_index	cue	stimulusintensity	rating_value	rating_glmslabel	rating_value_fillna	rating_glmslabel_fillna	rating_mouseonset	rating_mousedur	stim_file
14.18	0.99	cue	1	low_cue	n/a	n/a	n/a	n/a	n/a	n/a	n/a	l005.png
40.59	0.98	cue	2	low_cue	n/a	n/a	n/a	n/a	n/a	n/a	n/a	l026.png
72.19	0.99	cue	3	high_cue	n/a	n/a	n/a	n/a	n/a	n/a	n/a	h052.png
108.98	0.99	cue	4	low_cue	n/a	n/a	n/a	n/a	n/a	n/a	n/a	l037.png
145.08	0.99	cue	5	high_cue	n/a	n/a	n/a	n/a	n/a	n/a	n/a	h013.png
171.39	0.98	cue	6	low_cue	n/a	n/a	n/a	n/a	n/a	n/a	n/a	l053.png
199.79	0.99	cue	7	low_cue	n/a	n/a	n/a	n/a	n/a	n/a	n/a	l047.png
236.78	0.99	cue	8	high_cue	n/a	n/a	n/a	n/a	n/a	n/a	n/a	h003.png
264.19	0.98	cue	9	high_cue	n/a	n/a	n/a	n/a	n/a	n/a	n/a	h029.png
298.39	0.98	cue	10	high_cue	n/a	n/a	n/a	n/a	n/a	n/a	n/a	h037.png
335.99	0.99	cue	11	high_cue	n/a	n/a	n/a	n/a	n/a	n/a	n/a	h007.png
366.98	0.99	cue	12	low_cue	n/a	n/a	n/a	n/a	n/a	n/a	n/a	l002.png
16.0	2.4	expectrating	1	low_cue	n/a	10.14	Moderate	10.14	Moderate	0.55	1.85	l005.png
43.59	2.8	expectrating	2	low_cue	n/a	8.92	Weak	8.92	Weak	0.42	2.38	l026.png
75.19	2.41	expectrating	3	high_cue	n/a	70.11	Very Strong	70.11	Very Strong	0.78	1.62	h052.png
110.89	3.01	expectrating	4	low_cue	n/a	13.41	Moderate	13.41	Moderate	0.43	2.58	l037.png
146.8	2.93	expectrating	5	high_cue	n/a	43.69	Strong	43.69	Strong	0.67	2.27	h013.png
174.49	3.6	expectrating	6	low_cue	n/a	12.13	Moderate	12.13	Moderate	0.38	3.22	l053.png
202.79	1.98	expectrating	7	low_cue	n/a	7.18	Weak	7.18	Weak	0.47	1.51	l047.png
238.48	2.57	expectrating	8	high_cue	n/a	16.14	Moderate	16.14	Moderate	0.53	2.03	h003.png
267.19	2.35	expectrating	9	high_cue	n/a	58.8	Strong	58.8	Strong	0.52	1.83	h029.png
301.19	2.66	expectrating	10	high_cue	n/a	50.05	Strong	50.05	Strong	0.82	1.84	h037.png
338.89	1.74	expectrating	11	high_cue	n/a	43.7	Strong	43.7	Strong	0.35	1.39	h007.png
368.88	2.57	expectrating	12	low_cue	n/a	3.22	Weak	3.22	Weak	0.85	1.72	l002.png
22.58	7.01	stimulus	1	low_cue	low_stim	n/a	n/a	n/a	n/a	n/a	n/a	dr052t1aeunaff_L.mp4
50.18	7.01	stimulus	2	low_cue	med_stim	n/a	n/a	n/a	n/a	n/a	n/a	bg096t2aaaff_M.mp4
86.08	7.0	stimulus	3	high_cue	med_stim	n/a	n/a	n/a	n/a	n/a	n/a	aa048t2afunaff_M.mp4
120.28	7.02	stimulus	4	low_cue	high_stim	n/a	n/a	n/a	n/a	n/a	n/a	aa048t2aeaff_H.mp4
155.28	7.01	stimulus	5	high_cue	med_stim	n/a	n/a	n/a	n/a	n/a	n/a	dr052t2aaaff_M.mp4
182.68	7.01	stimulus	6	low_cue	high_stim	n/a	n/a	n/a	n/a	n/a	n/a	dr052t1aiaff_H.mp4
218.18	7.0	stimulus	7	low_cue	low_stim	n/a	n/a	n/a	n/a	n/a	n/a	jl047t1aaunaff_L.mp4
245.28	7.01	stimulus	8	high_cue	high_stim	n/a	n/a	n/a	n/a	n/a	n/a	nm106t1afaff_H.mp4
279.48	7.01	stimulus	9	high_cue	high_stim	n/a	n/a	n/a	n/a	n/a	n/a	bg096t1aeaff_H.mp4
321.88	7.01	stimulus	10	high_cue	low_stim	n/a	n/a	n/a	n/a	n/a	n/a	ll042t1aaunaff_L.mp4
345.68	7.02	stimulus	11	high_cue	low_stim	n/a	n/a	n/a	n/a	n/a	n/a	aa048t2aaunaff_L.mp4
382.48	7.01	stimulus	12	low_cue	med_stim	n/a	n/a	n/a	n/a	n/a	n/a	ll042t1afunaff_M.mp4
35.29	2.2	outcomerating	1	low_cue	low_stim	31.0	Strong	31.0	Strong	0.62	1.59	task-vicarious_scale.png
63.7	2.12	outcomerating	2	low_cue	med_stim	55.29	Strong	55.29	Strong	0.42	1.7	task-vicarious_scale.png
95.9	2.25	outcomerating	3	high_cue	med_stim	5.22	Weak	5.22	Weak	0.48	1.77	task-vicarious_scale.png
130.49	2.94	outcomerating	4	low_cue	high_stim	27.91	Moderate	27.91	Moderate	0.62	2.32	task-vicarious_scale.png
166.49	2.81	outcomerating	5	high_cue	med_stim	24.71	Moderate	24.71	Moderate	0.47	2.34	task-vicarious_scale.png
194.5	2.13	outcomerating	6	low_cue	high_stim	66.62	Very Strong	66.62	Very Strong	0.4	1.73	task-vicarious_scale.png
231.1	2.35	outcomerating	7	low_cue	low_stim	4.59	Weak	4.59	Weak	0.5	1.85	task-vicarious_scale.png
255.49	2.14	outcomerating	8	high_cue	high_stim	61.86	Strong	61.86	Strong	0.55	1.59	task-vicarious_scale.png
290.5	3.58	outcomerating	9	high_cue	high_stim	60.26	Strong	60.26	Strong	0.6	2.98	task-vicarious_scale.png
331.1	2.0	outcomerating	10	high_cue	low_stim	35.03	Strong	35.03	Strong	0.47	1.53	task-vicarious_scale.png
359.39	2.38	outcomerating	11	high_cue	low_stim	0.93	No sensation	0.93	No sensation	0.52	1.87	task-vicarious_scale.png
394.49	2.35	outcomerating	12	low_cue	med_stim	23.47	Moderate	23.47	Moderate	0.52	1.84	task-vicarious_scale.png
