onset	duration	trial_type	trial_index	cue	stimulusintensity	rating_value	rating_glmslabel	rating_value_fillna	rating_glmslabel_fillna	rating_mouseonset	rating_mousedur	stim_file
14.19	0.99	cue	1	low_cue	n/a	n/a	n/a	n/a	n/a	n/a	n/a	l054.png
43.79	1.0	cue	2	low_cue	n/a	n/a	n/a	n/a	n/a	n/a	n/a	l019.png
77.8	0.98	cue	3	high_cue	n/a	n/a	n/a	n/a	n/a	n/a	n/a	h040.png
110.49	0.99	cue	4	low_cue	n/a	n/a	n/a	n/a	n/a	n/a	n/a	l028.png
150.69	0.99	cue	5	high_cue	n/a	n/a	n/a	n/a	n/a	n/a	n/a	h043.png
178.69	0.99	cue	6	low_cue	n/a	n/a	n/a	n/a	n/a	n/a	n/a	l042.png
205.4	0.98	cue	7	low_cue	n/a	n/a	n/a	n/a	n/a	n/a	n/a	l008.png
237.49	0.99	cue	8	high_cue	n/a	n/a	n/a	n/a	n/a	n/a	n/a	h011.png
265.8	0.98	cue	9	high_cue	n/a	n/a	n/a	n/a	n/a	n/a	n/a	h044.png
296.7	0.98	cue	10	high_cue	n/a	n/a	n/a	n/a	n/a	n/a	n/a	h052.png
332.69	0.99	cue	11	high_cue	n/a	n/a	n/a	n/a	n/a	n/a	n/a	h053.png
365.29	0.99	cue	12	low_cue	n/a	n/a	n/a	n/a	n/a	n/a	n/a	l012.png
16.01	1.25	expectrating	1	low_cue	n/a	40.02	Strong	40.02	Strong	0.6	0.65	l054.png
46.8	2.16	expectrating	2	low_cue	n/a	28.83	Moderate	28.83	Moderate	0.82	1.34	l019.png
80.8	3.65	expectrating	3	high_cue	n/a	64.47	Very Strong	64.47	Very Strong	0.93	2.72	h040.png
112.4	2.08	expectrating	4	low_cue	n/a	0.93	No sensation	0.93	No sensation	0.68	1.4	l028.png
152.39	3.85	expectrating	5	high_cue	n/a	64.79	Very Strong	64.79	Very Strong	1.6	2.25	h043.png
181.8	1.88	expectrating	6	low_cue	n/a	9.77	Weak	9.77	Weak	0.82	1.07	l042.png
208.4	1.72	expectrating	7	low_cue	n/a	4.09	Weak	4.09	Weak	1.1	0.62	l008.png
239.19	2.29	expectrating	8	high_cue	n/a	68.5	Very Strong	68.5	Very Strong	1.03	1.25	h011.png
268.8	2.72	expectrating	9	high_cue	n/a	53.08	Strong	53.08	Strong	1.85	0.87	h044.png
299.5	3.52	expectrating	10	high_cue	n/a	69.23	Very Strong	69.23	Very Strong	1.57	1.95	h052.png
335.59	3.12	expectrating	11	high_cue	n/a	55.61	Strong	55.61	Strong	1.6	1.52	h053.png
367.19	2.67	expectrating	12	low_cue	n/a	30.6	Strong	30.6	Strong	0.57	2.1	l012.png
26.69	7.01	stimulus	1	low_cue	low_stim	n/a	n/a	n/a	n/a	n/a	n/a	vw121t1aeaff_L.mp4
57.48	7.01	stimulus	2	low_cue	med_stim	n/a	n/a	n/a	n/a	n/a	n/a	kz120t2aeaff_M.mp4
87.58	7.0	stimulus	3	high_cue	med_stim	n/a	n/a	n/a	n/a	n/a	n/a	jh043t2aeunaff_M.mp4
125.88	7.0	stimulus	4	low_cue	high_stim	n/a	n/a	n/a	n/a	n/a	n/a	jy115t2aaaff_H.mp4
160.89	7.01	stimulus	5	high_cue	med_stim	n/a	n/a	n/a	n/a	n/a	n/a	gf097t1aiaff_M.mp4
189.98	7.01	stimulus	6	low_cue	high_stim	n/a	n/a	n/a	n/a	n/a	n/a	bn080t1afaff_H.mp4
219.68	7.0	stimulus	7	low_cue	low_stim	n/a	n/a	n/a	n/a	n/a	n/a	jh043t2aaunaff_L.mp4
245.98	7.01	stimulus	8	high_cue	high_stim	n/a	n/a	n/a	n/a	n/a	n/a	vw121t1aaaff_H.mp4
276.98	7.01	stimulus	9	high_cue	high_stim	n/a	n/a	n/a	n/a	n/a	n/a	jh043t2aeaff_H.mp4
316.08	7.01	stimulus	10	high_cue	low_stim	n/a	n/a	n/a	n/a	n/a	n/a	jy115t1aaunaff_L.mp4
346.48	7.02	stimulus	11	high_cue	low_stim	n/a	n/a	n/a	n/a	n/a	n/a	kz120t2aaunaff_L.mp4
380.78	7.01	stimulus	12	low_cue	med_stim	n/a	n/a	n/a	n/a	n/a	n/a	jy115t1aeaff_M.mp4
37.7	2.15	outcomerating	1	low_cue	low_stim	11.58	Moderate	11.58	Moderate	0.43	1.72	task-vicarious_scale.png
69.3	2.3	outcomerating	2	low_cue	med_stim	10.72	Moderate	10.72	Moderate	0.97	1.33	task-vicarious_scale.png
97.41	1.66	outcomerating	3	high_cue	med_stim	21.84	Moderate	21.84	Moderate	0.05	1.61	task-vicarious_scale.png
136.1	3.06	outcomerating	4	low_cue	high_stim	10.9	Moderate	10.9	Moderate	0.77	2.29	task-vicarious_scale.png
173.8	1.89	outcomerating	5	high_cue	med_stim	25.95	Moderate	25.95	Moderate	0.63	1.26	task-vicarious_scale.png
200.09	3.17	outcomerating	6	low_cue	high_stim	50.19	Strong	50.19	Strong	1.77	1.4	task-vicarious_scale.png
232.61	2.07	outcomerating	7	low_cue	low_stim	5.05	Weak	5.05	Weak	0.85	1.22	task-vicarious_scale.png
257.9	2.72	outcomerating	8	high_cue	high_stim	46.14	Strong	46.14	Strong	1.75	0.97	task-vicarious_scale.png
288.01	3.37	outcomerating	9	high_cue	high_stim	46.63	Strong	46.63	Strong	1.67	1.7	task-vicarious_scale.png
327.01	2.85	outcomerating	10	high_cue	low_stim	11.13	Moderate	11.13	Moderate	1.0	1.85	task-vicarious_scale.png
358.5	2.69	outcomerating	11	high_cue	low_stim	30.29	Strong	30.29	Strong	0.42	2.27	task-vicarious_scale.png
394.5		outcomerating	12	low_cue	med_stim			30.37	Strong	0.9	3.03	task-vicarious_scale.png
