onset	duration	trial_type	trial_index	cue	stimulusintensity	rating_value	rating_glmslabel	rating_value_fillna	rating_glmslabel_fillna	rating_mouseonset	rating_mousedur	stim_file	onset_ttl1	onset_ttl2	onset_ttl3	onset_ttl4	stimulus_delivery_success
9.8	1.0	cue	1	high_cue	n/a	n/a	n/a	n/a	n/a	n/a	n/a	h027.png	n/a	n/a	n/a	n/a	n/a
41.51	1.0	cue	2	high_cue	n/a	n/a	n/a	n/a	n/a	n/a	n/a	h023.png	n/a	n/a	n/a	n/a	n/a
67.4	1.0	cue	3	low_cue	n/a	n/a	n/a	n/a	n/a	n/a	n/a	l043.png	n/a	n/a	n/a	n/a	n/a
96.8	1.0	cue	4	high_cue	n/a	n/a	n/a	n/a	n/a	n/a	n/a	h018.png	n/a	n/a	n/a	n/a	n/a
128.41	1.0	cue	5	high_cue	n/a	n/a	n/a	n/a	n/a	n/a	n/a	h053.png	n/a	n/a	n/a	n/a	n/a
171.01	1.0	cue	6	low_cue	n/a	n/a	n/a	n/a	n/a	n/a	n/a	l038.png	n/a	n/a	n/a	n/a	n/a
198.3	1.0	cue	7	low_cue	n/a	n/a	n/a	n/a	n/a	n/a	n/a	l018.png	n/a	n/a	n/a	n/a	n/a
234.9	1.0	cue	8	low_cue	n/a	n/a	n/a	n/a	n/a	n/a	n/a	l035.png	n/a	n/a	n/a	n/a	n/a
262.21	1.0	cue	9	high_cue	n/a	n/a	n/a	n/a	n/a	n/a	n/a	h014.png	n/a	n/a	n/a	n/a	n/a
291.1	1.0	cue	10	low_cue	n/a	n/a	n/a	n/a	n/a	n/a	n/a	l041.png	n/a	n/a	n/a	n/a	n/a
336.6	1.0	cue	11	high_cue	n/a	n/a	n/a	n/a	n/a	n/a	n/a	h035.png	n/a	n/a	n/a	n/a	n/a
371.6	1.0	cue	12	low_cue	n/a	n/a	n/a	n/a	n/a	n/a	n/a	l030.png	n/a	n/a	n/a	n/a	n/a
12.52	1.64	expectrating	1	high_cue	n/a	63.95	Strong	63.95	Strong	0.5	1.14	h027.png	n/a	n/a	n/a	n/a	n/a
43.01	1.5	expectrating	2	high_cue	n/a	64.77	Very Strong	64.77	Very Strong	0.3	1.2	h023.png	n/a	n/a	n/a	n/a	n/a
69.5	1.65	expectrating	3	low_cue	n/a	32.74	Strong	32.74	Strong	0.5	1.15	l043.png	n/a	n/a	n/a	n/a	n/a
100.72	1.81	expectrating	4	high_cue	n/a	70.55	Very Strong	70.55	Very Strong	0.43	1.37	h018.png	n/a	n/a	n/a	n/a	n/a
132.31	2.32	expectrating	5	high_cue	n/a	84.45	Very Strong	84.45	Very Strong	0.88	1.43	h053.png	n/a	n/a	n/a	n/a	n/a
174.91	2.65	expectrating	6	low_cue	n/a	23.17	Moderate	23.17	Moderate	0.85	1.8	l038.png	n/a	n/a	n/a	n/a	n/a
199.8	2.24	expectrating	7	low_cue	n/a	20.91	Moderate	20.91	Moderate	1.03	1.2	l018.png	n/a	n/a	n/a	n/a	n/a
237.0	2.14	expectrating	8	low_cue	n/a	28.85	Moderate	28.85	Moderate	0.5	1.64	l035.png	n/a	n/a	n/a	n/a	n/a
264.91	3.35	expectrating	9	high_cue	n/a	98.66	Strongest sensation of any kind	98.66	Strongest sensation of any kind	0.9	2.45	h014.png	n/a	n/a	n/a	n/a	n/a
293.3	2.52	expectrating	10	low_cue	n/a	29.96	Strong	29.96	Strong	0.42	2.1	l041.png	n/a	n/a	n/a	n/a	n/a
338.3	2.42	expectrating	11	high_cue	n/a	99.95	Strongest sensation of any kind	99.95	Strongest sensation of any kind	0.65	1.77	h035.png	n/a	n/a	n/a	n/a	n/a
373.4	2.77	expectrating	12	low_cue	n/a	26.99	Moderate	26.99	Moderate	0.83	1.94	l030.png	n/a	n/a	n/a	n/a	n/a
22.26	11.93	stimulus	1	high_cue	med_stim	n/a	n/a	n/a	n/a	n/a	n/a	49c	21.82	25.45	30.45	33.75	success
49.15	12.35	stimulus	2	high_cue	high_stim	n/a	n/a	n/a	n/a	n/a	n/a	50c	48.71	52.51	57.51	61.07	success
75.74	12.33	stimulus	3	low_cue	high_stim	n/a	n/a	n/a	n/a	n/a	n/a	50c	75.31	79.07	84.07	87.65	success
108.96	11.5	stimulus	4	high_cue	low_stim	n/a	n/a	n/a	n/a	n/a	n/a	48c	108.54	111.87	116.87	120.05	success
145.03	11.95	stimulus	5	high_cue	med_stim	n/a	n/a	n/a	n/a	n/a	n/a	49c	144.61	148.22	153.22	156.56	success
179.83	11.46	stimulus	6	low_cue	low_stim	n/a	n/a	n/a	n/a	n/a	n/a	48c	179.4	182.74	187.74	190.86	success
208.13	11.94	stimulus	7	low_cue	med_stim	n/a	n/a	n/a	n/a	n/a	n/a	49c	207.7	211.27	216.28	219.65	success
244.36	11.92	stimulus	8	low_cue	med_stim	n/a	n/a	n/a	n/a	n/a	n/a	49c	243.94	247.5	252.5	255.85	success
272.22	12.4	stimulus	9	high_cue	high_stim	n/a	n/a	n/a	n/a	n/a	n/a	50c	271.81	275.65	280.65	284.21	success
306.04	11.52	stimulus	10	low_cue	low_stim	n/a	n/a	n/a	n/a	n/a	n/a	48c	305.61	308.98	313.98	317.13	success
352.03	11.44	stimulus	11	high_cue	low_stim	n/a	n/a	n/a	n/a	n/a	n/a	48c	351.61	354.92	359.92	363.05	success
378.36	12.33	stimulus	12	low_cue	high_stim	n/a	n/a	n/a	n/a	n/a	n/a	50c	377.94	381.73	386.73	390.27	success
33.01	2.07	outcomerating	1	high_cue	med_stim	99.91	Strongest sensation of any kind	99.91	Strongest sensation of any kind	0.73	1.33	task-pain_scale.png	n/a	n/a	n/a	n/a	success
59.5	2.0	outcomerating	2	high_cue	high_stim	98.13	Strongest sensation of any kind	98.13	Strongest sensation of any kind	0.78	1.22	task-pain_scale.png	n/a	n/a	n/a	n/a	success
87.51	2.05	outcomerating	3	low_cue	high_stim	79.14	Very Strong	79.14	Very Strong	0.87	1.18	task-pain_scale.png	n/a	n/a	n/a	n/a	success
119.31	1.95	outcomerating	4	high_cue	low_stim	46.46	Strong	46.46	Strong	0.77	1.18	task-pain_scale.png	n/a	n/a	n/a	n/a	success
156.8	2.0	outcomerating	5	high_cue	med_stim	44.02	Strong	44.02	Strong	0.75	1.25	task-pain_scale.png	n/a	n/a	n/a	n/a	success
191.7	2.46	outcomerating	6	low_cue	low_stim	9.69	Weak	9.69	Weak	0.77	1.69	task-pain_scale.png	n/a	n/a	n/a	n/a	success
228.91	1.96	outcomerating	7	low_cue	med_stim	26.36	Moderate	26.36	Moderate	1.18	0.77	task-pain_scale.png	n/a	n/a	n/a	n/a	success
256.21	2.52	outcomerating	8	low_cue	med_stim	30.49	Strong	30.49	Strong	0.87	1.65	task-pain_scale.png	n/a	n/a	n/a	n/a	success
285.8	1.67	outcomerating	9	high_cue	high_stim	63.33	Strong	63.33	Strong	0.58	1.09	task-pain_scale.png	n/a	n/a	n/a	n/a	success
323.0	2.64	outcomerating	10	low_cue	low_stim	15.32	Moderate	15.32	Moderate	0.65	1.99	task-pain_scale.png	n/a	n/a	n/a	n/a	success
367.1	3.86	outcomerating	11	high_cue	low_stim	26.36	Moderate	26.36	Moderate	1.5	2.36	task-pain_scale.png	n/a	n/a	n/a	n/a	success
394.81	2.55	outcomerating	12	low_cue	high_stim	60.97	Strong	60.97	Strong	0.57	1.98	task-pain_scale.png	n/a	n/a	n/a	n/a	success
