onset	duration	trial_type	trial_index	cue	stimulusintensity	rating_value	rating_glmslabel	rating_value_fillna	rating_glmslabel_fillna	rating_mouseonset	rating_mousedur	stim_file	onset_ttl1	onset_ttl2	onset_ttl3	onset_ttl4	stimulus_delivery_success
5.51	0.98	cue	1	low_cue	n/a	n/a	n/a	n/a	n/a	n/a	n/a	l038.png	n/a	n/a	n/a	n/a	n/a
33.8	1.0	cue	2	low_cue	n/a	n/a	n/a	n/a	n/a	n/a	n/a	l048.png	n/a	n/a	n/a	n/a	n/a
74.2	1.0	cue	3	low_cue	n/a	n/a	n/a	n/a	n/a	n/a	n/a	l015.png	n/a	n/a	n/a	n/a	n/a
103.8	1.0	cue	4	high_cue	n/a	n/a	n/a	n/a	n/a	n/a	n/a	h017.png	n/a	n/a	n/a	n/a	n/a
138.31	0.98	cue	5	high_cue	n/a	n/a	n/a	n/a	n/a	n/a	n/a	h046.png	n/a	n/a	n/a	n/a	n/a
178.11	1.0	cue	6	high_cue	n/a	n/a	n/a	n/a	n/a	n/a	n/a	h052.png	n/a	n/a	n/a	n/a	n/a
206.7	1.0	cue	7	high_cue	n/a	n/a	n/a	n/a	n/a	n/a	n/a	h042.png	n/a	n/a	n/a	n/a	n/a
242.0	1.0	cue	8	low_cue	n/a	n/a	n/a	n/a	n/a	n/a	n/a	l014.png	n/a	n/a	n/a	n/a	n/a
270.81	0.98	cue	9	high_cue	n/a	n/a	n/a	n/a	n/a	n/a	n/a	h014.png	n/a	n/a	n/a	n/a	n/a
306.51	1.0	cue	10	low_cue	n/a	n/a	n/a	n/a	n/a	n/a	n/a	l053.png	n/a	n/a	n/a	n/a	n/a
333.5	1.0	cue	11	high_cue	n/a	n/a	n/a	n/a	n/a	n/a	n/a	h033.png	n/a	n/a	n/a	n/a	n/a
372.1	1.0	cue	12	low_cue	n/a	n/a	n/a	n/a	n/a	n/a	n/a	l025.png	n/a	n/a	n/a	n/a	n/a
7.53	2.19	expectrating	1	low_cue	n/a	26.05	Moderate	26.05	Moderate	0.42	1.77	l038.png	n/a	n/a	n/a	n/a	n/a
36.1	2.77	expectrating	2	low_cue	n/a	13.76	Moderate	13.76	Moderate	0.53	2.23	l048.png	n/a	n/a	n/a	n/a	n/a
76.52	2.87	expectrating	3	low_cue	n/a	33.18	Strong	33.18	Strong	0.45	2.42	l015.png	n/a	n/a	n/a	n/a	n/a
106.61	1.37	expectrating	4	high_cue	n/a	142.81	Strongest sensation of any kind	142.81	Strongest sensation of any kind	0.3	1.07	h017.png	n/a	n/a	n/a	n/a	n/a
140.01	1.74	expectrating	5	high_cue	n/a	148.6	Strongest sensation of any kind	148.6	Strongest sensation of any kind	0.68	1.06	h046.png	n/a	n/a	n/a	n/a	n/a
179.91	1.53	expectrating	6	high_cue	n/a	120.92	Strongest sensation of any kind	120.92	Strongest sensation of any kind	0.25	1.28	h052.png	n/a	n/a	n/a	n/a	n/a
209.7	1.82	expectrating	7	high_cue	n/a	139.83	Strongest sensation of any kind	139.83	Strongest sensation of any kind	0.37	1.45	h042.png	n/a	n/a	n/a	n/a	n/a
244.7	1.17	expectrating	8	low_cue	n/a	58.68	Strong	58.68	Strong	0.15	1.02	l014.png	n/a	n/a	n/a	n/a	n/a
273.81	1.57	expectrating	9	high_cue	n/a	120.88	Strongest sensation of any kind	120.88	Strongest sensation of any kind	0.38	1.19	h014.png	n/a	n/a	n/a	n/a	n/a
308.81	1.45	expectrating	10	low_cue	n/a	78.92	Very Strong	78.92	Very Strong	0.32	1.13	l053.png	n/a	n/a	n/a	n/a	n/a
336.5	1.52	expectrating	11	high_cue	n/a	145.73	Strongest sensation of any kind	145.73	Strongest sensation of any kind	0.42	1.1	h033.png	n/a	n/a	n/a	n/a	n/a
375.1	1.29	expectrating	12	low_cue	n/a	54.33	Strong	54.33	Strong	0.43	0.85	l025.png	n/a	n/a	n/a	n/a	n/a
16.29	11.75	stimulus	1	low_cue	med_stim	n/a	n/a	n/a	n/a	n/a	n/a	49c	16.31	19.94	24.94	28.06	success
47.66	11.33	stimulus	2	low_cue	low_stim	n/a	n/a	n/a	n/a	n/a	n/a	48c	47.69	51.06	56.06	59.02	success
85.36	12.17	stimulus	3	low_cue	high_stim	n/a	n/a	n/a	n/a	n/a	n/a	50c	85.39	89.26	94.26	97.56	success
113.25	11.26	stimulus	4	high_cue	low_stim	n/a	n/a	n/a	n/a	n/a	n/a	48c	113.29	116.55	121.55	124.55	success
153.02	11.74	stimulus	5	high_cue	med_stim	n/a	n/a	n/a	n/a	n/a	n/a	49c	153.06	156.67	161.67	164.8	success
186.57	12.16	stimulus	6	high_cue	high_stim	n/a	n/a	n/a	n/a	n/a	n/a	50c	186.6	190.47	195.47	198.77	success
217.33	11.31	stimulus	7	high_cue	low_stim	n/a	n/a	n/a	n/a	n/a	n/a	48c	217.37	220.69	225.69	228.68	success
251.64	12.14	stimulus	8	low_cue	high_stim	n/a	n/a	n/a	n/a	n/a	n/a	50c	251.67	255.52	260.52	263.82	success
279.73	12.16	stimulus	9	high_cue	high_stim	n/a	n/a	n/a	n/a	n/a	n/a	50c	279.76	283.55	288.55	291.92	success
316.43	11.69	stimulus	10	low_cue	med_stim	n/a	n/a	n/a	n/a	n/a	n/a	49c	316.47	320.05	325.05	328.16	success
346.84	11.71	stimulus	11	high_cue	med_stim	n/a	n/a	n/a	n/a	n/a	n/a	49c	346.88	350.45	355.45	358.59	success
383.73	11.34	stimulus	12	low_cue	low_stim	n/a	n/a	n/a	n/a	n/a	n/a	48c	383.76	387.12	392.12	395.1	success
28.1	2.6	outcomerating	1	low_cue	med_stim	90.69	Very Strong	90.69	Very Strong	0.52	2.08	task-pain_scale.png	n/a	n/a	n/a	n/a	success
58.51	1.89	outcomerating	2	low_cue	low_stim	47.43	Strong	47.43	Strong	0.33	1.55	task-pain_scale.png	n/a	n/a	n/a	n/a	success
96.41	2.22	outcomerating	3	low_cue	high_stim	106.04	Strongest sensation of any kind	106.04	Strongest sensation of any kind	0.43	1.79	task-pain_scale.png	n/a	n/a	n/a	n/a	success
127.41	1.77	outcomerating	4	high_cue	low_stim	74.68	Very Strong	74.68	Very Strong	0.37	1.4	task-pain_scale.png	n/a	n/a	n/a	n/a	success
167.2	2.17	outcomerating	5	high_cue	med_stim	95.32	Very Strong	95.32	Very Strong	0.38	1.78	task-pain_scale.png	n/a	n/a	n/a	n/a	success
200.7	1.98	outcomerating	6	high_cue	high_stim	122.74	Strongest sensation of any kind	122.74	Strongest sensation of any kind	0.37	1.62	task-pain_scale.png	n/a	n/a	n/a	n/a	success
235.81	2.36	outcomerating	7	high_cue	low_stim	113.38	Strongest sensation of any kind	113.38	Strongest sensation of any kind	0.48	1.87	task-pain_scale.png	n/a	n/a	n/a	n/a	success
261.61	1.52	outcomerating	8	low_cue	high_stim	108.29	Strongest sensation of any kind	108.29	Strongest sensation of any kind	0.43	1.08	task-pain_scale.png	n/a	n/a	n/a	n/a	success
300.5	1.77	outcomerating	9	high_cue	high_stim	105.32	Strongest sensation of any kind	105.32	Strongest sensation of any kind	0.35	1.42	task-pain_scale.png	n/a	n/a	n/a	n/a	success
327.3	1.89	outcomerating	10	low_cue	med_stim	96.44	Very Strong	96.44	Very Strong	0.62	1.27	task-pain_scale.png	n/a	n/a	n/a	n/a	success
361.21	1.72	outcomerating	11	high_cue	med_stim	66.11	Very Strong	66.11	Very Strong	0.4	1.32	task-pain_scale.png	n/a	n/a	n/a	n/a	success
394.7	2.5	outcomerating	12	low_cue	low_stim	82.87	Very Strong	82.87	Very Strong	0.53	1.97	task-pain_scale.png	n/a	n/a	n/a	n/a	success
