onset	duration	trial_type	trial_index	cue	stimulusintensity	rating_value	rating_glmslabel	rating_value_fillna	rating_glmslabel_fillna	rating_mouseonset	rating_mousedur	stim_file	onset_ttl1	onset_ttl2	onset_ttl3	onset_ttl4	stimulus_delivery_success
10.59	1.0	cue	1	low_cue	n/a	n/a	n/a	n/a	n/a	n/a	n/a	l013.png	n/a	n/a	n/a	n/a	n/a
35.7	1.0	cue	2	low_cue	n/a	n/a	n/a	n/a	n/a	n/a	n/a	l004.png	n/a	n/a	n/a	n/a	n/a
61.3	1.0	cue	3	low_cue	n/a	n/a	n/a	n/a	n/a	n/a	n/a	l046.png	n/a	n/a	n/a	n/a	n/a
91.29	1.0	cue	4	low_cue	n/a	n/a	n/a	n/a	n/a	n/a	n/a	l036.png	n/a	n/a	n/a	n/a	n/a
120.0	1.0	cue	5	high_cue	n/a	n/a	n/a	n/a	n/a	n/a	n/a	h021.png	n/a	n/a	n/a	n/a	n/a
153.9	1.0	cue	6	high_cue	n/a	n/a	n/a	n/a	n/a	n/a	n/a	h031.png	n/a	n/a	n/a	n/a	n/a
194.2	1.0	cue	7	high_cue	n/a	n/a	n/a	n/a	n/a	n/a	n/a	h028.png	n/a	n/a	n/a	n/a	n/a
219.19	1.0	cue	8	high_cue	n/a	n/a	n/a	n/a	n/a	n/a	n/a	h001.png	n/a	n/a	n/a	n/a	n/a
251.4	1.0	cue	9	high_cue	n/a	n/a	n/a	n/a	n/a	n/a	n/a	h043.png	n/a	n/a	n/a	n/a	n/a
285.8	1.0	cue	10	high_cue	n/a	n/a	n/a	n/a	n/a	n/a	n/a	h007.png	n/a	n/a	n/a	n/a	n/a
326.19	1.0	cue	11	low_cue	n/a	n/a	n/a	n/a	n/a	n/a	n/a	l027.png	n/a	n/a	n/a	n/a	n/a
366.39	1.0	cue	12	low_cue	n/a	n/a	n/a	n/a	n/a	n/a	n/a	l029.png	n/a	n/a	n/a	n/a	n/a
12.31	2.12	expectrating	1	low_cue	n/a	42.88	Strong	42.88	Strong	0.57	1.55	l013.png	n/a	n/a	n/a	n/a	n/a
38.0	2.38	expectrating	2	low_cue	n/a	3.68	Weak	3.68	Weak	0.93	1.45	l004.png	n/a	n/a	n/a	n/a	n/a
64.2	1.55	expectrating	3	low_cue	n/a	67.34	Very Strong	67.34	Very Strong	0.42	1.13	l046.png	n/a	n/a	n/a	n/a	n/a
93.69	1.85	expectrating	4	low_cue	n/a	57.33	Strong	57.33	Strong	0.38	1.47	l036.png	n/a	n/a	n/a	n/a	n/a
122.9	1.67	expectrating	5	high_cue	n/a	111.5	Strongest sensation of any kind	111.5	Strongest sensation of any kind	0.42	1.25	h021.png	n/a	n/a	n/a	n/a	n/a
155.8	2.28	expectrating	6	high_cue	n/a	111.12	Strongest sensation of any kind	111.12	Strongest sensation of any kind	0.47	1.82	h031.png	n/a	n/a	n/a	n/a	n/a
197.0	3.25	expectrating	7	high_cue	n/a	112.36	Strongest sensation of any kind	112.36	Strongest sensation of any kind	0.4	2.85	h028.png	n/a	n/a	n/a	n/a	n/a
222.11	2.6	expectrating	8	high_cue	n/a	106.61	Strongest sensation of any kind	106.61	Strongest sensation of any kind	0.58	2.02	h001.png	n/a	n/a	n/a	n/a	n/a
253.8	2.53	expectrating	9	high_cue	n/a	82.85	Very Strong	82.85	Very Strong	0.45	2.08	h043.png	n/a	n/a	n/a	n/a	n/a
289.0	1.68	expectrating	10	high_cue	n/a	105.09	Strongest sensation of any kind	105.09	Strongest sensation of any kind	0.35	1.33	h007.png	n/a	n/a	n/a	n/a	n/a
328.1	2.43	expectrating	11	low_cue	n/a	83.05	Very Strong	83.05	Very Strong	0.43	2.0	l027.png	n/a	n/a	n/a	n/a	n/a
369.19	1.83	expectrating	12	low_cue	n/a	81.25	Very Strong	81.25	Very Strong	0.47	1.37	l029.png	n/a	n/a	n/a	n/a	n/a
21.2	11.24	stimulus	1	low_cue	low_stim	n/a	n/a	n/a	n/a	n/a	n/a	48c	21.22	24.52	29.52	32.46	success
43.83	11.58	stimulus	2	low_cue	med_stim	n/a	n/a	n/a	n/a	n/a	n/a	49c	43.86	47.33	52.33	55.44	success
72.24	11.28	stimulus	3	low_cue	low_stim	n/a	n/a	n/a	n/a	n/a	n/a	48c	72.27	75.55	80.55	83.55	success
99.81	12.08	stimulus	4	low_cue	high_stim	n/a	n/a	n/a	n/a	n/a	n/a	50c	99.85	103.58	108.58	111.94	success
131.81	11.63	stimulus	5	high_cue	med_stim	n/a	n/a	n/a	n/a	n/a	n/a	49c	131.86	135.34	140.34	143.48	success
167.82	12.07	stimulus	6	high_cue	high_stim	n/a	n/a	n/a	n/a	n/a	n/a	50c	167.86	171.6	176.6	179.92	success
204.23	11.66	stimulus	7	high_cue	med_stim	n/a	n/a	n/a	n/a	n/a	n/a	49c	204.27	207.76	212.76	215.93	success
232.51	11.31	stimulus	8	high_cue	low_stim	n/a	n/a	n/a	n/a	n/a	n/a	48c	232.56	235.88	240.88	243.87	success
264.72	11.32	stimulus	9	high_cue	low_stim	n/a	n/a	n/a	n/a	n/a	n/a	48c	264.77	268.08	273.08	276.09	success
296.03	12.13	stimulus	10	high_cue	high_stim	n/a	n/a	n/a	n/a	n/a	n/a	50c	296.06	299.81	304.81	308.19	success
340.43	11.7	stimulus	11	low_cue	med_stim	n/a	n/a	n/a	n/a	n/a	n/a	49c	340.47	344.01	349.02	352.17	success
373.85	12.13	stimulus	12	low_cue	high_stim	n/a	n/a	n/a	n/a	n/a	n/a	50c	373.89	377.7	382.7	386.02	success
31.1	3.4	outcomerating	1	low_cue	low_stim	62.82	Strong	62.82	Strong	0.7	2.7	task-pain_scale.png	n/a	n/a	n/a	n/a	success
56.29	2.8	outcomerating	2	low_cue	med_stim	96.93	Very Strong	96.93	Very Strong	0.63	2.17	task-pain_scale.png	n/a	n/a	n/a	n/a	success
86.31	2.45	outcomerating	3	low_cue	low_stim	56.12	Strong	56.12	Strong	0.43	2.02	task-pain_scale.png	n/a	n/a	n/a	n/a	success
112.3	1.95	outcomerating	4	low_cue	high_stim	103.42	Strongest sensation of any kind	103.42	Strongest sensation of any kind	0.7	1.25	task-pain_scale.png	n/a	n/a	n/a	n/a	success
142.79	2.95	outcomerating	5	high_cue	med_stim	83.33	Very Strong	83.33	Very Strong	0.38	2.57	task-pain_scale.png	n/a	n/a	n/a	n/a	success
184.19	2.85	outcomerating	6	high_cue	high_stim	84.47	Very Strong	84.47	Very Strong	0.58	2.27	task-pain_scale.png	n/a	n/a	n/a	n/a	success
214.2	3.08	outcomerating	7	high_cue	med_stim	74.18	Very Strong	74.18	Very Strong	1.25	1.83	task-pain_scale.png	n/a	n/a	n/a	n/a	success
242.7	3.0	outcomerating	8	high_cue	low_stim	67.64	Very Strong	67.64	Very Strong	1.13	1.87	task-pain_scale.png	n/a	n/a	n/a	n/a	success
280.79	2.68	outcomerating	9	high_cue	low_stim	60.26	Strong	60.26	Strong	0.65	2.03	task-pain_scale.png	n/a	n/a	n/a	n/a	success
311.31	2.32	outcomerating	10	high_cue	high_stim	76.58	Very Strong	76.58	Very Strong	0.52	1.8	task-pain_scale.png	n/a	n/a	n/a	n/a	success
353.3	2.58	outcomerating	11	low_cue	med_stim	99.69	Strongest sensation of any kind	99.69	Strongest sensation of any kind	0.77	1.82	task-pain_scale.png	n/a	n/a	n/a	n/a	success
394.8	3.0	outcomerating	12	low_cue	high_stim	83.3	Very Strong	83.3	Very Strong	0.62	2.38	task-pain_scale.png	n/a	n/a	n/a	n/a	success
