onset	duration	trial_type	trial_index	cue	stimulusintensity	rating_value	rating_glmslabel	rating_value_fillna	rating_glmslabel_fillna	rating_mouseonset	rating_mousedur	stim_file
8.1	0.98	cue	1	high_cue	n/a	n/a	n/a	n/a	n/a	n/a	n/a	h024.png
52.4	0.98	cue	2	low_cue	n/a	n/a	n/a	n/a	n/a	n/a	n/a	l020.png
93.2	0.98	cue	3	high_cue	n/a	n/a	n/a	n/a	n/a	n/a	n/a	h044.png
123.39	0.99	cue	4	low_cue	n/a	n/a	n/a	n/a	n/a	n/a	n/a	l017.png
151.28	0.99	cue	5	high_cue	n/a	n/a	n/a	n/a	n/a	n/a	n/a	h032.png
188.38	1.0	cue	6	high_cue	n/a	n/a	n/a	n/a	n/a	n/a	n/a	h013.png
218.19	0.98	cue	7	low_cue	n/a	n/a	n/a	n/a	n/a	n/a	n/a	l006.png
246.19	0.99	cue	8	high_cue	n/a	n/a	n/a	n/a	n/a	n/a	n/a	h049.png
277.58	1.0	cue	9	low_cue	n/a	n/a	n/a	n/a	n/a	n/a	n/a	l028.png
309.69	0.98	cue	10	low_cue	n/a	n/a	n/a	n/a	n/a	n/a	n/a	l047.png
339.19	0.99	cue	11	high_cue	n/a	n/a	n/a	n/a	n/a	n/a	n/a	h012.png
371.68	0.99	cue	12	low_cue	n/a	n/a	n/a	n/a	n/a	n/a	n/a	l003.png
10.0	2.08	expectrating	1	high_cue	n/a	66.01	Very Strong	66.01	Very Strong	0.7	1.38	h024.png
55.0	1.47	expectrating	2	low_cue	n/a	17.71	Moderate	17.71	Moderate	0.5	0.97	l020.png
96.1	1.92	expectrating	3	high_cue	n/a	31.52	Strong	31.52	Strong	0.93	0.99	h044.png
126.69	2.37	expectrating	4	low_cue	n/a	30.09	Strong	30.09	Strong	0.72	1.66	l017.png
153.1	2.92	expectrating	5	high_cue	n/a	44.19	Strong	44.19	Strong	1.08	1.83	h032.png
190.5	1.93	expectrating	6	high_cue	n/a	38.8	Strong	38.8	Strong	0.42	1.52	h013.png
220.29	2.97	expectrating	7	low_cue	n/a	19.53	Moderate	19.53	Moderate	1.08	1.89	l006.png
248.69	2.7	expectrating	8	high_cue	n/a	72.88	Very Strong	72.88	Very Strong	0.85	1.85	h049.png
280.7	1.48	expectrating	9	low_cue	n/a	32.92	Strong	32.92	Strong	0.4	1.08	l028.png
311.99	1.52	expectrating	10	low_cue	n/a	39.99	Strong	39.99	Strong	0.62	0.91	l047.png
342.29	2.43	expectrating	11	high_cue	n/a	38.66	Strong	38.66	Strong	1.32	1.11	h012.png
374.0	2.55	expectrating	12	low_cue	n/a	49.71	Strong	49.71	Strong	0.73	1.82	l003.png
23.28	7.01	stimulus	1	high_cue	low_stim	n/a	n/a	n/a	n/a	n/a	n/a	ch092t2aeaff_L.mp4
68.98	7.01	stimulus	2	low_cue	med_stim	n/a	n/a	n/a	n/a	n/a	n/a	mg066t2aaunaff_M.mp4
105.58	7.01	stimulus	3	high_cue	high_stim	n/a	n/a	n/a	n/a	n/a	n/a	bm049t2aeunaff_H.mp4
134.68	7.0	stimulus	4	low_cue	high_stim	n/a	n/a	n/a	n/a	n/a	n/a	mg066t1aaaff_H.mp4
167.08	7.01	stimulus	5	high_cue	low_stim	n/a	n/a	n/a	n/a	n/a	n/a	mg066t2aeunaff_L.mp4
198.48	7.01	stimulus	6	high_cue	med_stim	n/a	n/a	n/a	n/a	n/a	n/a	ch092t2aaaff_M.mp4
230.18	7.0	stimulus	7	low_cue	high_stim	n/a	n/a	n/a	n/a	n/a	n/a	dn124t1aiaff_H.mp4
257.68	7.01	stimulus	8	high_cue	med_stim	n/a	n/a	n/a	n/a	n/a	n/a	ak064t1aiaff_M.mp4
292.48	7.01	stimulus	9	low_cue	low_stim	n/a	n/a	n/a	n/a	n/a	n/a	mg101t2afunaff_L.mp4
319.98	7.0	stimulus	10	low_cue	low_stim	n/a	n/a	n/a	n/a	n/a	n/a	ib109t1aiunaff_L.mp4
354.58	7.02	stimulus	11	high_cue	high_stim	n/a	n/a	n/a	n/a	n/a	n/a	ib109t1aiaff_H.mp4
381.98	7.01	stimulus	12	low_cue	med_stim	n/a	n/a	n/a	n/a	n/a	n/a	ib109t1afaff_M.mp4
39.59	1.57	outcomerating	1	high_cue	low_stim	27.49	Moderate	27.49	Moderate	0.37	1.21	task-vicarious_scale.png
83.89	1.54	outcomerating	2	low_cue	med_stim	6.01	Weak	6.01	Weak	0.4	1.14	task-vicarious_scale.png
116.41	2.2	outcomerating	3	high_cue	high_stim	21.12	Moderate	21.12	Moderate	0.43	1.77	task-vicarious_scale.png
143.0	2.12	outcomerating	4	low_cue	high_stim	52.89	Strong	52.89	Strong	0.43	1.68	task-vicarious_scale.png
177.69	1.77	outcomerating	5	high_cue	low_stim	36.08	Strong	36.08	Strong	0.75	1.02	task-vicarious_scale.png
207.51	2.07	outcomerating	6	high_cue	med_stim	18.29	Moderate	18.29	Moderate	0.38	1.68	task-vicarious_scale.png
239.2	2.55	outcomerating	7	low_cue	high_stim	86.32	Very Strong	86.32	Very Strong	1.02	1.53	task-vicarious_scale.png
268.3	2.22	outcomerating	8	high_cue	med_stim	22.87	Moderate	22.87	Moderate	0.62	1.6	task-vicarious_scale.png
305.19	2.06	outcomerating	9	low_cue	low_stim	19.96	Moderate	19.96	Moderate	0.98	1.07	task-vicarious_scale.png
330.8	2.82	outcomerating	10	low_cue	low_stim	30.39	Strong	30.39	Strong	0.48	2.33	task-vicarious_scale.png
366.9	2.32	outcomerating	11	high_cue	high_stim	73.02	Very Strong	73.02	Very Strong	0.52	1.8	task-vicarious_scale.png
394.79	1.51	outcomerating	12	low_cue	med_stim	7.38	Weak	7.38	Weak	0.45	1.06	task-vicarious_scale.png
