ISI01_biopac,ISI01_duration,ISI01_onset,ISI02_biopac,ISI02_duration,ISI02_onset,ISI03_biopac,ISI03_duration,ISI03_onset,ITI_biopac,ITI_duration,ITI_onset,delay_between_medoc,event01_cue_biopac,event01_cue_filename,event01_cue_onset,event01_cue_type,event02_expect_RT,event02_expect_angle,event02_expect_angle_label,event02_expect_biopac,event02_expect_displayonset,event02_expect_responseonset,event03_stimulusC_RT,event03_stimulusC_reseponseonset,event03_stimulusC_response,event03_stimulusC_responsekeyname,event03_stimulus_C_stim_filename,event03_stimulus_C_stim_match,event03_stimulus_C_stim_num,event03_stimulus_P_delay_between_medoc,event03_stimulus_P_trigger,event03_stimulus_V_filename,event03_stimulus_V_patientid,event03_stimulus_biopac,event03_stimulus_displayonset,event03_stimulus_type,event04_actual_RT,event04_actual_angle,event04_actual_angle_label,event04_actual_biopac,event04_actual_displayonset,event04_actual_responseonset,param_cond_type,param_counterbalance_block_num,param_counterbalance_ver,param_cue_type,param_end_biopac,param_end_instruct_onset,param_experiment_duration,param_run_num,param_start_biopac,param_stimulus_type,param_task_name,param_trigger_onset,session_id,src_subject_id,trial_no
1613680682.1097698,2.0945250988006596,1613680682.10817,1613680688.2449,1.2588894367218002,1613680688.24381,1613680698.52489,2.18836784362793,1613680698.5143301,1613680679.82517,1.2790389060974099,1613680679.82398,0.0560300350189209,1613680681.12504,h010.png,1613680681.1078,high_cue,1.91756176948547,67.4161474793436,FIX,1613680684.2258198,1613680684.22563,1613680686.1431901,0,0,0,,,,0,0,Command Recieved: TRIGGER_AND_Response: RESULT_OK,,,1613680689.5643198,1613680689.56392,med_stim,3.2753818035125697,53.695502877424794,FIX,1613680700.72406,1613680700.71515,1613680703.99054,5,1,2,high_cue,1613681075.45698,1613681075.4558,398.415405035019,3,1613680677.04149,med_stim,pain,1613680677.0404,4,5,1
1613680711.5254,2.08348774909973,1613680711.5192099,1613680717.64215,6.86452341079712,1613680717.63817,1613680733.51224,5.89189910888672,1613680733.5108,1613680704.75141,5.753016710281369,1613680704.75,0.042003870010376,1613680710.5250099,l047.png,1613680710.51883,low_cue,2.0373156070709197,20.0423167448936,FIX,1613680713.62399,1613680713.62,1613680715.65731,0,0,0,,,,0,0,Command Recieved: TRIGGER_AND_Response: RESULT_OK,,,1613680724.54567,1613680724.5453,low_stim,3.31102609634399,18.0700124871914,FIX,1613680739.4240901,1613680739.41301,1613680742.72404,1,1,2,low_cue,1613681075.45698,1613681075.4558,398.415405035019,3,1613680677.04149,low_stim,pain,1613680677.0404,4,5,2
1613680749.61819,0.985854148864746,1613680749.6168401,1613680754.6417198,6.867303848266599,1613680754.63539,1613680770.50915,3.59468150138855,1613680770.50801,1613680743.4416199,5.1718254089355495,1613680743.43119,0.0395059585571289,1613680748.61796,h036.png,1613680748.6164699,high_cue,1.65691924095154,93.4612538779541,FIX,1613680750.62422,1613680750.61722,1613680752.2741401,0,0,0,,,,0,0,Command Recieved: TRIGGER_AND_Response: RESULT_OK,,,1613680761.54372,1613680761.5431,low_stim,2.3843352794647203,42.0559536500124,FIX,1613680774.12422,1613680774.10937,1613680776.4937,4,1,2,high_cue,1613681075.45698,1613681075.4558,398.415405035019,3,1613680677.04149,low_stim,pain,1613680677.0404,4,5,3
1613680783.61456,2.08976101875305,1613680783.61293,1613680789.7334301,5.17079830169678,1613680789.7319,1613680803.92528,0.582139253616333,1613680803.92056,1613680778.1419199,4.47548127174377,1613680778.12754,0.0347220897674561,1613680782.6137,h026.png,1613680782.61256,high_cue,2.01040601730347,57.1524567347606,FIX,1613680785.72411,1613680785.7137198,1613680787.7241302,0,0,0,,,,0,0,Command Recieved: TRIGGER_AND_Response: RESULT_OK,,,1613680794.93888,1613680794.93828,high_stim,3.8367073535919203,59.1591077102931,FIX,1613680804.5242,1613680804.52078,1613680808.35749,6,1,2,high_cue,1613681075.45698,1613681075.4558,398.415405035019,3,1613680677.04149,high_stim,pain,1613680677.0404,4,5,4
1613680810.82534,2.07954978942871,1613680810.82315,1613680816.94392,1.26058578491211,1613680816.94211,1613680827.2263699,2.19006514549255,1613680827.21263,1613680808.9267302,0.881072282791138,1613680808.92243,0.0940470695495605,1613680809.82652,h038.png,1613680809.8227699,high_cue,2.1676428318023704,70.1148348861446,FIX,1613680812.92417,1613680812.92394,1613680815.0915802,0,0,0,,,,0,0,Command Recieved: TRIGGER_AND_Response: RESULT_OK,,,1613680818.2996302,1613680818.29834,low_stim,1.96076059341431,27.28636280995,FIX,1613680829.4242802,1613680829.41346,1613680831.37422,4,1,2,high_cue,1613681075.45698,1613681075.4558,398.415405035019,3,1613680677.04149,low_stim,pain,1613680677.0404,4,5,5
1613680841.31918,0.984769582748413,1613680841.31793,1613680846.3419302,5.166221618652339,1613680846.33647,1613680860.5094302,0.994233846664429,1613680860.50846,1613680833.44941,6.8544921875,1613680833.4483,0.0467739105224609,1613680840.31905,h037.png,1613680840.31755,high_cue,2.47264194488525,51.1213674266183,FIX,1613680842.32425,1613680842.3183,1613680844.79094,0,0,0,,,,0,0,Command Recieved: TRIGGER_AND_Response: RESULT_OK,,,1613680851.55032,1613680851.54995,med_stim,3.8017005920410196,37.1910075397043,FIX,1613680861.5257099,1613680861.52551,1613680865.32721,5,1,2,high_cue,1613681075.45698,1613681075.4558,398.415405035019,3,1613680677.04149,med_stim,pain,1613680677.0404,4,5,6
1613680874.91488,1.3888270854949998,1613680874.9138699,1613680880.3336198,2.5701284408569305,1613680880.3325698,1613680891.9212801,9.48244476318359,1613680891.92025,1613680865.89499,8.0089647769928,1613680865.8938198,0.0610401630401611,1613680873.91454,l030.png,1613680873.91349,low_cue,1.5266044139862098,12.7619266829967,FIX,1613680876.3245301,1613680876.31439,1613680877.841,0,0,0,,,,0,0,Command Recieved: TRIGGER_AND_Response: RESULT_OK,,,1613680882.96576,1613680882.96478,high_stim,2.43454360961914,35.8583597764751,FIX,1613680901.42497,1613680901.42382,1613680903.85836,3,1,2,low_cue,1613681075.45698,1613681075.4558,398.415405035019,3,1613680677.04149,high_stim,pain,1613680677.0404,4,5,7
1613680909.4114199,1.8925468921661397,1613680909.41015,1613680915.3301198,2.57365870475769,1613680915.32904,1613680926.91799,7.085976839065549,1613680926.91672,1613680905.4424698,2.96080589294434,1613680905.4419901,0.0419590473175049,1613680908.4107301,l045.png,1613680908.40977,low_cue,3.0514073371887203,45.6700955222245,FIX,1613680911.3244698,1613680911.31086,1613680914.3622699,0,0,0,,,,0,0,Command Recieved: TRIGGER_AND_Response: RESULT_OK,,,1613680917.9454699,1613680917.94516,med_stim,2.9385097026825,38.3375228934037,FIX,1613680934.02445,1613680934.01938,1613680936.95789,2,1,2,low_cue,1613681075.45698,1613681075.4558,398.415405035019,3,1613680677.04149,med_stim,pain,1613680677.0404,4,5,8
1613680948.40921,0.794575691223145,1613680948.40812,1613680953.24432,2.5594286918640097,1613680953.24327,1613680964.81549,4.58841896057129,1613680964.81428,1613680938.0414698,9.36522841453552,1613680938.03756,0.035006046295166,1613680947.40855,h004.png,1613680947.40774,high_cue,2.25101184844971,33.0527658954005,FIX,1613680949.2253401,1613680949.22509,1613680951.4761,0,0,0,,,,0,0,Command Recieved: TRIGGER_AND_Response: RESULT_OK,,,1613680955.83855,1613680955.83826,high_stim,1.7085440158844,34.071609807394196,FIX,1613680969.4247198,1613680969.4160001,1613680971.12455,6,1,2,high_cue,1613681075.45698,1613681075.4558,398.415405035019,3,1613680677.04149,high_stim,pain,1613680677.0404,4,5,9
1613680975.71966,1.4843285083770799,1613680975.71837,1613680981.24225,2.0655882358551003,1613680981.23711,1613680992.30894,2.6947689056396498,1613680992.30793,1613680973.4419198,1.26862049102783,1613680973.43418,0.0311949253082275,1613680974.71931,l009.png,1613680974.71799,low_cue,2.30573415756226,6.66961984231233,FIX,1613680977.22466,1613680977.21893,1613680979.52467,0,0,0,,,,0,0,Command Recieved: TRIGGER_AND_Response: RESULT_OK,,,1613680983.3348,1613680983.33448,med_stim,2.8179128170013397,14.427144280549701,FIX,1613680995.02588,1613680995.02562,1613680997.8435302,2,1,2,low_cue,1613681075.45698,1613681075.4558,398.415405035019,3,1613680677.04149,med_stim,pain,1613680677.0404,4,5,10
1613681005.21409,0.889922380447388,1613681005.21277,1613681010.13259,11.471411705017099,1613681010.1312802,1613681030.62337,13.380388736724901,1613681030.62231,1613680999.05869,5.15900945663452,1613680999.04379,0.0363471508026123,1613681004.21371,l049.png,1613681004.2124,low_cue,1.70086240768433,34.5922886875099,FIX,1613681006.125,1613681006.11311,1613681007.8139699,0,0,0,,,,0,0,Command Recieved: TRIGGER_AND_Response: RESULT_OK,,,1613681021.64041,1613681021.6398802,low_stim,1.90085911750793,27.320319022561197,FIX,1613681044.0248802,1613681044.01067,1613681045.91153,1,1,2,low_cue,1613681075.45698,1613681075.4558,398.415405035019,3,1613680677.04149,low_stim,pain,1613680677.0404,4,5,11
1613681050.6145,0.989551305770874,1613681050.61314,1613681055.6326098,5.771000862121579,1613681055.6317,1613681070.42182,0.982117891311646,1613681070.4205801,1613681048.0465,1.5572826862335198,1613681048.0455198,0.043112039566040004,1613681049.61386,l026.png,1613681049.6127698,low_cue,2.01761174201965,36.6388675289486,FIX,1613681051.62481,1613681051.61352,1613681053.63113,0,0,0,,,,0,0,Command Recieved: TRIGGER_AND_Response: RESULT_OK,,,1613681061.44682,1613681061.44643,high_stim,1.6539070606231698,58.0918930643469,FIX,1613681071.42579,1613681071.42095,1613681073.0748599,3,1,2,low_cue,1613681075.45698,1613681075.4558,398.415405035019,3,1613680677.04149,high_stim,pain,1613680677.0404,4,5,12
1613679280.93818,1.58911967277527,1613679280.93228,1613679286.58807,0.5369985103607179,1613679286.5844,1613679296.13954,1.9834125041961699,1613679296.13798,1613679277.03839,2.8909075260162402,1613679277.0308099,0.064208984375,1613679279.93821,h020.png,1613679279.9319,high_cue,1.3875093460083001,65.89776549883891,FIX,1613679282.57038,1613679282.5662198,1613679283.95373,0,0,0,,,,0,0,Command Recieved: TRIGGER_AND_Response: RESULT_OK,,,1613679287.19154,1613679287.19106,high_stim,3.0513105392456095,86.55261314813481,FIX,1613679298.13909,1613679298.13873,1613679301.19005,6,2,2,high_cue,1613679673.27187,1613679673.26286,399.00347328186007,0,1613679274.2602599,high_stim,pain,1613679274.25939,4,5,13
1613679307.54542,1.97913098335266,1613679307.54226,1613679313.56251,5.86020660400391,1613679313.5611901,1613679328.43818,4.28795647621155,1613679328.43344,1613679302.17497,4.3481352329254195,1613679302.1735802,0.0707709789276123,1613679306.5380301,l020.png,1613679306.52522,low_cue,1.98439598083496,15.149211652671001,FIX,1613679309.54366,1613679309.54302,1613679311.52741,0,0,0,,,,0,0,Command Recieved: TRIGGER_AND_Response: RESULT_OK,,,1613679319.49332,1613679319.49272,high_stim,2.80205368995667,51.051732108794,FIX,1613679332.73715,1613679332.73505,1613679335.5371099,3,2,2,low_cue,1613679673.27187,1613679673.26286,399.00347328186007,0,1613679274.2602599,high_stim,pain,1613679274.25939,4,5,14
1613679338.3387198,1.3842408657074,1613679338.3371599,1613679343.75721,0.565540313720703,1613679343.7558599,1613679353.3385,2.7952833175659197,1613679353.32611,1613679336.7716901,0.5518205165863039,1613679336.7699,0.0577249526977539,1613679337.33831,l011.png,1613679337.33678,low_cue,1.85093879699707,28.207490879015303,FIX,1613679339.73784,1613679339.7376802,1613679341.58862,0,0,0,,,,0,0,Command Recieved: TRIGGER_AND_Response: RESULT_OK,,,1613679344.38011,1613679344.37972,high_stim,2.38442921638489,24.710799462230202,FIX,1613679356.14744,1613679356.14384,1613679358.52827,3,2,2,low_cue,1613679673.27187,1613679673.26286,399.00347328186007,0,1613679274.2602599,high_stim,pain,1613679274.25939,4,5,15
1613679370.33846,1.38889789581299,1613679370.3325,1613679375.75537,1.17019844055176,1613679375.7512,1613679385.9393802,3.88304162025452,1613679385.93835,1613679360.17155,9.16003203392029,1613679360.16201,0.0480098724365234,1613679369.3385599,h047.png,1613679369.33212,high_cue,3.30414938926697,53.313889308454506,FIX,1613679371.7372801,1613679371.7330198,1613679375.03717,0,0,0,,,,0,0,Command Recieved: TRIGGER_AND_Response: RESULT_OK,,,1613679376.97059,1613679376.97003,high_stim,2.18434715270996,8.13010235415598,FIX,1613679389.84006,1613679389.83982,1613679392.02416,6,2,2,high_cue,1613679673.27187,1613679673.26286,399.00347328186007,0,1613679274.2602599,high_stim,pain,1613679274.25939,4,5,16
1613679395.43943,1.9961476325988798,1613679395.42525,1613679401.47245,11.1605491638184,1613679401.46085,1613679421.63925,1.58630990982056,1613679421.63509,1613679393.8768,0.54755425453186,1613679393.87467,0.0654420852661133,1613679394.44366,l012.png,1613679394.44155,low_cue,3.3182365894317596,1.38035407344445,FIX,1613679397.45425,1613679397.4426699,1613679400.76091,0,0,0,,,,0,0,Command Recieved: TRIGGER_AND_Response: RESULT_OK,,,1613679412.68893,1613679412.68789,low_stim,2.2849936485290496,1.3915266525478203,FIX,1613679423.23745,1613679423.23569,1613679425.5206802,1,2,2,low_cue,1613679673.27187,1613679673.26286,399.00347328186007,0,1613679274.2602599,low_stim,pain,1613679274.25939,4,5,17
1613679435.14116,1.98124122619629,1613679435.14015,1613679441.16035,20.062316417694102,1613679441.15908,1613679470.2383099,12.3847353458405,1613679470.23666,1613679427.27164,6.8509659767150906,1613679427.27053,0.0539150238037109,1613679434.14094,h014.png,1613679434.13978,high_cue,2.48442888259888,60.255118703057796,FIX,1613679437.1410198,1613679437.14091,1613679439.62533,0,0,0,,,,0,0,Command Recieved: TRIGGER_AND_Response: RESULT_OK,,,1613679461.2764301,1613679461.27597,low_stim,2.0510268211364697,5.5275401516561695,FIX,1613679482.64153,1613679482.64132,1613679484.6923401,4,2,2,high_cue,1613679673.27187,1613679673.26286,399.00347328186007,0,1613679274.2602599,low_stim,pain,1613679274.25939,4,5,18
1613679494.53861,1.19228625297546,1613679494.52911,1613679499.74906,2.97365927696228,1613679499.74774,1613679511.73824,3.885826587677,1613679511.73557,1613679486.6715698,6.862008333206179,1613679486.65949,0.0712931156158447,1613679493.53848,l014.png,1613679493.52874,low_cue,1.9412088394165001,26.1543357783129,FIX,1613679495.7376099,1613679495.72956,1613679497.67077,0,0,0,,,,0,0,Command Recieved: TRIGGER_AND_Response: RESULT_OK,,,1613679502.79382,1613679502.79337,med_stim,3.16801714897156,34.915803709409396,FIX,1613679515.63754,1613679515.6370301,1613679518.80505,2,2,2,low_cue,1613679673.27187,1613679673.26286,399.00347328186007,0,1613679274.2602599,med_stim,pain,1613679274.25939,4,5,19
1613679527.73836,1.59649085998535,1613679527.7249,1613679533.36122,0.9610450267791751,1613679533.36035,1613679543.3389401,4.8906342983245805,1613679543.33076,1613679519.67305,7.049613237380981,1613679519.67188,0.0625460147857666,1613679526.74242,h031.png,1613679526.7412,high_cue,3.3015174865722696,71.34496603860791,FIX,1613679529.34266,1613679529.34218,1613679532.64369,0,0,0,,,,0,0,Command Recieved: TRIGGER_AND_Response: RESULT_OK,,,1613679534.38555,1613679534.38495,med_stim,2.15513706207275,2.5396804503407,FIX,1613679548.23786,1613679548.2326,1613679550.3877401,5,2,2,high_cue,1613679673.27187,1613679673.26286,399.00347328186007,0,1613679274.2602599,med_stim,pain,1613679274.25939,4,5,20
1613679559.1386302,0.8847041130065921,1613679559.1366901,1613679564.05643,1.5661895275116,1613679564.0552099,1613679574.63835,2.39555478096008,1613679574.62584,1613679552.26846,5.8540506362915,1613679552.26745,0.0568928718566895,1613679558.1387,h006.png,1613679558.1363199,high_cue,3.1347663402557404,55.216879629726705,FIX,1613679560.0379698,1613679560.03703,1613679563.1718,0,0,0,,,,0,0,Command Recieved: TRIGGER_AND_Response: RESULT_OK,,,1613679565.67974,1613679565.67921,med_stim,2.57763028144836,36.1294441432409,FIX,1613679577.03808,1613679577.02674,1613679579.6043699,5,2,2,high_cue,1613679673.27187,1613679673.26286,399.00347328186007,0,1613679274.2602599,med_stim,pain,1613679274.25939,4,5,21
1613679587.13895,1.99086213111877,1613679587.13053,1613679593.15065,1.5719358921051,1613679593.14946,1613679603.7384698,5.484631299972531,1613679603.73677,1613679581.0626,5.05990624427795,1613679581.06159,0.04864501953125,1613679586.13873,l028.png,1613679586.1301599,low_cue,2.12313508987427,9.2726017772003,FIX,1613679589.13811,1613679589.1312802,1613679591.2544198,0,0,0,,,,0,0,Command Recieved: TRIGGER_AND_Response: RESULT_OK,,,1613679594.7710001,1613679594.7706401,med_stim,1.58410453796387,19.160173121981302,FIX,1613679609.2391,1613679609.23883,1613679610.82294,2,2,2,low_cue,1613679673.27187,1613679673.26286,399.00347328186007,0,1613679274.2602599,med_stim,pain,1613679274.25939,4,5,22
1613679616.5387301,0.8964965343475341,1613679616.5249,1613679621.46085,6.26131200790405,1613679621.4600801,1613679636.73877,2.7889144420623797,1613679636.73248,1613679613.27211,2.264493227005,1613679613.25701,0.039586067199707,1613679615.54282,h002.png,1613679615.5412,high_cue,3.2347202301025404,57.4582464400049,FIX,1613679617.4421802,1613679617.44191,1613679620.67663,0,0,0,,,,0,0,Command Recieved: TRIGGER_AND_Response: RESULT_OK,,,1613679627.76263,1613679627.7618198,low_stim,2.3710298538208,24.842389105455197,FIX,1613679639.5381699,1613679639.53354,1613679641.9045699,4,2,2,high_cue,1613679673.27187,1613679673.26286,399.00347328186007,0,1613679274.2602599,low_stim,pain,1613679274.25939,4,5,23
1613679646.83884,0.885119915008545,1613679646.83628,1613679651.75579,0.7666079998016361,1613679651.75479,1613679661.54316,7.67960119247437,1613679661.54179,1613679643.55518,2.2697911262512203,1613679643.55171,0.0637810230255127,1613679645.83899,l003.png,1613679645.8359,low_cue,2.61803269386292,45.654780402267704,FIX,1613679647.7382,1613679647.73661,1613679650.35465,0,0,0,,,,0,0,Command Recieved: TRIGGER_AND_Response: RESULT_OK,,,1613679652.58589,1613679652.58568,low_stim,2.33429837226868,11.309932474020199,FIX,1613679669.24488,1613679669.24469,1613679671.57898,1,2,2,low_cue,1613679673.27187,1613679673.26286,399.00347328186007,0,1613679274.2602599,low_stim,pain,1613679274.25939,4,5,24
1613075773.7597,1.68806648254395,1613075773.75577,1613075779.49314,2.0525939464569096,1613075779.49125,1613075790.5648599,1.78179788589478,1613075790.56204,1613075765.7601,6.992587089538571,1613075765.75279,0.0706009864807129,1613075772.75965,h006.png,1613075772.7554,high_cue,2.7346329689025897,43.6980473274211,FIX,1613075775.4753,1613075775.4730802,1613075778.20771,0,0,0,,,,0,0,Command Recieved: TRIGGER_AND_Response: RESULT_OK,,,1613075781.62232,1613075781.62133,med_stim,2.86788463592529,88.38969939750099,FIX,1613075792.3633199,1613075792.36271,1613075795.2306,5,2,2,high_cue,1613076161.79295,1613076161.78381,398.802427530289,4,1613075762.98295,med_stim,pain,1613075762.98138,3,5,25
1613075798.75974,0.495413064956665,1613075798.74843,1613075803.28528,2.0603878498077397,1613075803.28345,1613075814.35922,1.38959288597107,1613075814.35425,1613075796.39911,1.3472409248352097,1613075796.39755,0.0753982067108154,1613075797.7664,h005.png,1613075797.76473,high_cue,2.66785550117493,87.4705057951622,FIX,1613075799.2665699,1613075799.26529,1613075801.93314,0,0,0,,,,0,0,Command Recieved: TRIGGER_AND_Response: RESULT_OK,,,1613075805.4212,1613075805.41989,high_stim,2.65299677848816,56.888658039628,FIX,1613075815.75887,1613075815.75477,1613075818.40777,6,2,2,high_cue,1613076161.79295,1613076161.78381,398.802427530289,4,1613075762.98295,high_stim,pain,1613075762.98138,3,5,26
1613075824.65993,1.08575034141541,1613075824.65809,1613075829.7782,2.16717624664307,1613075829.77666,1613075840.9662,2.77967119216919,1613075840.96417,1613075819.7913802,3.8551037311553995,1613075819.78961,0.0421240329742432,1613075823.65942,l010.png,1613075823.6577199,low_cue,1.71748757362366,12.316700285646801,FIX,1613075825.75948,1613075825.7585,1613075827.47599,0,0,0,,,,0,0,Command Recieved: TRIGGER_AND_Response: RESULT_OK,,,1613075831.98813,1613075831.98676,high_stim,2.3844847679138197,10.859503235322,FIX,1613075843.76632,1613075843.76521,1613075846.1497,3,2,2,low_cue,1613076161.79295,1613076161.78381,398.802427530289,4,1613075762.98295,high_stim,pain,1613075762.98138,3,5,27
1613075854.05939,2.89145612716675,1613075854.05238,1613075860.97574,4.17220997810364,1613075860.97163,1613075874.16182,1.38395714759827,1613075874.1598802,1613075847.7921698,5.26148748397827,1613075847.78338,0.0661399364471436,1613075853.05929,h015.png,1613075853.05201,high_cue,2.45425820350647,60.255118703057796,FIX,1613075856.9581099,1613075856.95347,1613075859.40773,0,0,0,,,,0,0,Command Recieved: TRIGGER_AND_Response: RESULT_OK,,,1613075865.2120001,1613075865.21065,low_stim,,,FIX,1613075875.56171,1613075875.56041,,4,2,2,high_cue,1613076161.79295,1613076161.78381,398.802427530289,4,1613075762.98295,low_stim,pain,1613075762.98138,3,5,28
1613075882.56492,2.88082361221313,1613075882.56302,1613075889.4839401,5.061575889587401,1613075889.48226,1613075903.55956,2.78966307640076,1613075903.5541801,1613075879.5968099,1.9494602680206299,1613075879.59524,0.103899955749512,1613075881.5641599,h007.png,1613075881.56264,high_cue,1.61021375656128,61.481272211329205,FIX,1613075885.47545,1613075885.4641,1613075887.07431,0,0,0,,,,0,0,Command Recieved: TRIGGER_AND_Response: RESULT_OK,,,1613075894.6503,1613075894.64852,med_stim,2.36913013458252,29.8937011687992,FIX,1613075906.35845,1613075906.3552198,1613075908.72435,5,2,2,high_cue,1613076161.79295,1613076161.78381,398.802427530289,4,1613075762.98295,med_stim,pain,1613075762.98138,3,5,29
1613075921.56295,2.88294768333435,1613075921.56089,1613075928.4818301,0.863700151443481,1613075928.48014,1613075938.3595,2.89335131645203,1613075938.35049,1613075910.37502,10.1714296340942,1613075910.37339,0.079470157623291,1613075920.56275,l039.png,1613075920.56052,low_cue,2.7345929145813,19.6851075818423,FIX,1613075924.46345,1613075924.46198,1613075927.19657,0,0,0,,,,0,0,Command Recieved: TRIGGER_AND_Response: RESULT_OK,,,1613075929.4244401,1613075929.42376,low_stim,3.4061074256897004,12.5789352374931,FIX,1613075941.26929,1613075941.26824,1613075944.67435,1,2,2,low_cue,1613076161.79295,1613076161.78381,398.802427530289,4,1613075762.98295,low_stim,pain,1613075762.98138,3,5,30
1613075948.85935,0.489434242248535,1613075948.85441,1613075953.37608,7.87108278274536,1613075953.37276,1613075970.26421,11.7814500331879,1613075970.2623901,1613075945.2922099,2.5583081245422403,1613075945.2864099,0.0386409759521484,1613075947.85934,l003.png,1613075947.8540301,low_cue,2.03642821311951,33.0527658954005,FIX,1613075949.35877,1613075949.35459,1613075951.3910198,0,0,0,,,,0,0,Command Recieved: TRIGGER_AND_Response: RESULT_OK,,,1613075961.28384,1613075961.28301,med_stim,2.27421259880066,32.2245330172405,FIX,1613075982.06756,1613075982.06679,1613075984.341,2,2,2,low_cue,1613076161.79295,1613076161.78381,398.802427530289,4,1613075762.98295,med_stim,pain,1613075762.98138,3,5,31
1613075989.0594301,1.09111189842224,1613075989.05273,1613075994.17593,6.87253570556641,1613075994.17131,1613076010.06249,2.8832776546478303,1613076010.06056,1613075986.10322,1.94293618202209,1613075986.10163,0.0493130683898926,1613075988.05927,l036.png,1613075988.05236,low_cue,2.2879698276519798,17.7004277886672,FIX,1613075990.15908,1613075990.15314,1613075992.44111,0,0,0,,,,0,0,Command Recieved: TRIGGER_AND_Response: RESULT_OK,,,1613076001.09492,1613076001.0938098,med_stim,1.5174112319946298,13.4243700550323,FIX,1613076012.96275,1613076012.9616401,1613076014.47906,2,2,2,low_cue,1613076161.79295,1613076161.78381,398.802427530289,4,1613075762.98295,med_stim,pain,1613075762.98138,3,5,32
1613076019.95945,1.6962566375732402,1613076019.94758,1613076025.6848,6.86078381538391,1613076025.68306,1613076041.5590699,4.588200092315669,1613076041.55564,1613076016.99242,1.9649949073791497,1613076016.97981,0.0670461654663086,1613076018.96584,h053.png,1613076018.96388,high_cue,2.0176622867584197,63.7440957122987,FIX,1613076021.66609,1613076021.66489,1613076023.68255,0,0,0,,,,0,0,Command Recieved: TRIGGER_AND_Response: RESULT_OK,,,1613076032.61272,1613076032.6115801,high_stim,3.3848717212677,30.289719634088996,FIX,1613076046.15836,1613076046.15736,1613076049.5422301,6,2,2,high_cue,1613076161.79295,1613076161.78381,398.802427530289,4,1613075762.98295,high_stim,pain,1613075762.98138,3,5,33
1613076055.56291,1.18297529220581,1613076055.56086,1613076061.13141,4.71423125267029,1613076061.12961,1613076074.85923,7.99244737625122,1613076074.8513901,1613076050.17641,4.369298219680791,1613076050.17552,0.0529830455780029,1613076054.5621,l037.png,1613076054.5604901,low_cue,3.81836986541748,17.998694973021603,FIX,1613076056.76244,1613076056.7613099,1613076060.57968,0,0,0,,,,0,0,Command Recieved: TRIGGER_AND_Response: RESULT_OK,,,1613076065.89835,1613076065.8973901,low_stim,2.40329480171204,0.920334966849057,FIX,1613076082.85852,1613076082.8543801,1613076085.25767,1,2,2,low_cue,1613076161.79295,1613076161.78381,398.802427530289,4,1613075762.98295,low_stim,pain,1613075762.98138,3,5,34
1613076100.56288,0.6828608512878421,1613076100.56098,1613076105.28101,6.06443381309509,1613076105.27941,1613076120.35905,6.09214568138123,1613076120.35169,1613076086.89082,12.6555368900299,1613076086.88921,0.0483121871948242,1613076099.5625699,h031.png,1613076099.56061,high_cue,2.7178831100463903,57.775466982759504,FIX,1613076101.26254,1613076101.26124,1613076103.97912,0,0,0,,,,0,0,Command Recieved: TRIGGER_AND_Response: RESULT_OK,,,1613076111.39323,1613076111.39259,low_stim,3.1870889663696302,29.345216173294897,FIX,1613076126.4584699,1613076126.45397,1613076129.6410599,4,2,2,high_cue,1613076161.79295,1613076161.78381,398.802427530289,4,1613075762.98295,low_stim,pain,1613075762.98138,3,5,35
1613076131.95913,0.787818670272827,1613076131.9560199,1613076136.77595,4.46935486793518,1613076136.77449,1613076150.26451,7.48099136352539,1613076150.26285,1613076130.49029,0.455970287322998,1613076130.48881,0.034384012222290004,1613076130.95996,l019.png,1613076130.95565,low_cue,,,FIX,1613076132.7585,1613076132.75632,,0,0,0,,,,0,0,Command Recieved: TRIGGER_AND_Response: RESULT_OK,,,1613076141.28065,1613076141.27936,high_stim,1.8175685405731201,29.5723907608144,FIX,1613076157.7669199,1613076157.76565,1613076159.58321,3,2,2,low_cue,1613076161.79295,1613076161.78381,398.802427530289,4,1613075762.98295,high_stim,pain,1613075762.98138,3,5,36
1613075222.3857698,1.84762907028198,1613075222.38349,1613075228.2757,4.062099695205689,1613075228.2690198,1613075241.34304,5.09055876731873,1613075241.34056,1613075215.8506598,5.18450951576233,1613075215.84772,0.11435914039611801,1613075221.0518,l052.png,1613075221.04966,low_cue,,,FIX,1613075224.25825,1613075224.25085,,0,0,0,,,,0,0,Command Recieved: TRIGGER_AND_Response: RESULT_OK,,,1613075232.45721,1613075232.4563599,med_stim,3.1513745784759504,64.2592916437672,FIX,1613075246.44311,1613075246.44246,1613075249.5938401,2,1,2,low_cue,1613075611.88083,1613075611.87874,398.81092524528503,3,1613075213.06968,med_stim,pain,1613075213.06781,3,5,37
1613075254.74774,1.88555860519409,1613075254.74556,1613075260.66706,4.066685914993291,1613075260.6644301,1613075273.74491,0.895143270492554,1613075273.73597,1613075250.4792302,3.2551326751708998,1613075250.4773,0.073732852935791,1613075253.74732,h038.png,1613075253.7451801,high_cue,1.8508460521698,116.360058207353,FIX,1613075256.6473,1613075256.64627,1613075258.49711,0,0,0,,,,0,0,Command Recieved: TRIGGER_AND_Response: RESULT_OK,,,1613075264.8071,1613075264.80565,low_stim,1.92129135131836,21.630886836517895,FIX,1613075274.6542199,1613075274.65298,1613075276.57427,4,1,2,high_cue,1613075611.88083,1613075611.87874,398.81092524528503,3,1613075213.06968,low_stim,pain,1613075213.06781,3,5,38
1613075284.84287,1.8910028934478798,1613075284.84011,1613075290.7655098,11.172130107879601,1613075290.75899,1613075310.9521198,4.981265783309941,1613075310.94985,1613075278.67535,5.16109585762024,1613075278.67115,0.0898609161376953,1613075283.84278,h006.png,1613075283.83974,high_cue,1.6008369922637902,38.1572265873691,FIX,1613075286.74202,1613075286.74082,1613075288.34166,0,0,0,,,,0,0,Command Recieved: TRIGGER_AND_Response: RESULT_OK,,,1613075302.0237,1613075302.02215,high_stim,2.62259435653687,65.2892005377698,FIX,1613075315.95292,1613075315.95172,1613075318.57431,6,1,2,high_cue,1613075611.88083,1613075611.87874,398.81092524528503,3,1613075213.06968,high_stim,pain,1613075213.06781,3,5,39
1613075322.84316,1.79350090026855,1613075322.83762,1613075328.67592,1.6579885482788101,1613075328.67313,1613075339.3461199,0.48734378814697293,1613075339.34377,1613075319.98865,1.8457760810852097,1613075319.98655,0.0468730926513672,1613075321.8431199,l008.png,1613075321.83724,low_cue,2.06930661201477,34.390314408712605,FIX,1613075324.65622,1613075324.65496,1613075326.7242699,0,0,0,,,,0,0,Command Recieved: TRIGGER_AND_Response: RESULT_OK,,,1613075330.37977,1613075330.3785698,med_stim,2.0342538356781,11.446459092938499,FIX,1613075339.84531,1613075339.84396,1613075341.87821,2,1,2,low_cue,1613075611.88083,1613075611.87874,398.81092524528503,3,1613075213.06968,med_stim,pain,1613075213.06781,3,5,40
1613075348.15025,0.5840604305267328,1613075348.14706,1613075352.79406,4.0489993095397905,1613075352.78212,1613075365.85677,0.5774581432342529,1613075365.8536599,1613075343.88219,3.2539796829223597,1613075343.8788,0.0491700172424316,1613075347.15027,h005.png,1613075347.14668,high_cue,1.90085363388062,80.49880684847192,FIX,1613075348.76473,1613075348.76395,1613075350.66481,0,0,0,,,,0,0,Command Recieved: TRIGGER_AND_Response: RESULT_OK,,,1613075356.88323,1613075356.88127,low_stim,,,FIX,1613075366.45808,1613075366.45388,,4,1,2,high_cue,1613075611.88083,1613075611.87874,398.81092524528503,3,1613075213.06968,low_stim,pain,1613075213.06781,3,5,41
1613075378.64341,1.2893574237823502,1613075378.6417599,1613075383.96245,0.9707059860229491,1613075383.9604099,1613075393.9493802,8.78365015983582,1613075393.94747,1613075370.49207,7.1432180404663095,1613075370.48872,0.0254628658294678,1613075377.6431699,l004.png,1613075377.64139,low_cue,1.65082192420959,7.532601400947359,FIX,1613075379.94305,1613075379.94225,1613075381.59307,0,0,0,,,,0,0,Command Recieved: TRIGGER_AND_Response: RESULT_OK,,,1613075384.95799,1613075384.95711,high_stim,1.75685286521912,40.8312943086019,FIX,1613075402.7518,1613075402.75075,1613075404.5076,3,1,2,low_cue,1613075611.88083,1613075611.87874,398.81092524528503,3,1613075213.06968,high_stim,pain,1613075213.06781,3,5,42
1613075411.04284,0.9939405918121341,1613075411.0371802,1613075416.0757802,3.45873069763184,1613075416.07239,1613075428.54524,5.18741464614868,1613075428.5437,1613075406.77561,3.2631423473358194,1613075406.76892,0.075171947479248,1613075410.04225,l014.png,1613075410.0368,low_cue,2.47014284133911,29.773572220689896,FIX,1613075412.05522,1613075412.05422,1613075414.52436,0,0,0,,,,0,0,Command Recieved: TRIGGER_AND_Response: RESULT_OK,,,1613075419.6077302,1613075419.60696,low_stim,2.6678431034088104,8.74616226255521,FIX,1613075433.74684,1613075433.74564,1613075436.41349,1,1,2,low_cue,1613075611.88083,1613075611.87874,398.81092524528503,3,1613075213.06968,low_stim,pain,1613075213.06781,3,5,43
1613075439.54994,1.3833076953887902,1613075439.54781,1613075444.96789,3.4646215438842796,1613075444.96649,1613075457.4426901,3.09330463409424,1613075457.43781,1613075437.77555,0.768197536468506,1613075437.76381,0.050649881362915004,1613075438.5489302,h040.png,1613075438.54743,high_cue,1.5006904602050801,54.4623222080256,FIX,1613075440.9492,1613075440.9483302,1613075442.44902,0,0,0,,,,0,0,Command Recieved: TRIGGER_AND_Response: RESULT_OK,,,1613075448.48301,1613075448.48227,med_stim,2.1352527141571,19.9634442785012,FIX,1613075460.5566,1613075460.55564,1613075462.69089,5,1,2,high_cue,1613075611.88083,1613075611.87874,398.81092524528503,3,1613075213.06968,med_stim,pain,1613075213.06781,3,5,44
1613075469.14413,0.988940000534058,1613075469.14218,1613075474.16263,1.67040109634399,1613075474.1607199,1613075484.85009,6.4830837249755895,1613075484.84803,1613075464.57501,3.55819463729858,1613075464.5738099,0.0685200691223145,1613075468.1435099,l039.png,1613075468.1418,low_cue,2.68448400497437,26.255904287701302,FIX,1613075470.1437,1613075470.14255,1613075472.8270302,0,0,0,,,,0,0,Command Recieved: TRIGGER_AND_Response: RESULT_OK,,,1613075475.9018302,1613075475.90031,high_stim,3.0904755592346205,45.6510603802295,FIX,1613075491.35142,1613075491.35046,1613075494.4409301,3,1,2,low_cue,1613075611.88083,1613075611.87874,398.81092524528503,3,1613075213.06968,high_stim,pain,1613075213.06781,3,5,45
1613075502.6427698,1.8931159973144498,1613075502.6379998,1613075508.57574,4.157569885253911,1613075508.57355,1613075521.74722,3.1859903335571302,1613075521.74513,1613075495.37532,6.26343584060669,1613075495.36862,0.0589170455932617,1613075501.64274,h036.png,1613075501.63763,high_cue,2.1355426311492898,65.5560452195835,FIX,1613075504.5562,1613075504.55538,1613075506.6909301,0,0,0,,,,0,0,Command Recieved: TRIGGER_AND_Response: RESULT_OK,,,1613075512.79192,1613075512.7907,med_stim,2.4511384963989302,31.0817298303779,FIX,1613075524.94711,1613075524.9463198,1613075527.39746,5,1,2,high_cue,1613075611.88083,1613075611.87874,398.81092524528503,3,1613075213.06968,med_stim,pain,1613075213.06781,3,5,46
1613075533.25138,1.78169894218445,1613075533.24942,1613075539.07019,4.16286277770996,1613075539.06825,1613075552.24235,8.79128336906433,1613075552.23983,1613075528.97577,3.2675809860229506,1613075528.9644802,0.0525329113006592,1613075532.25111,l038.png,1613075532.2490401,low_cue,2.16764402389526,6.66961984231233,FIX,1613075535.0511198,1613075535.05009,1613075537.21773,0,0,0,,,,0,0,Command Recieved: TRIGGER_AND_Response: RESULT_OK,,,1613075543.2848198,1613075543.28409,low_stim,1.40079164505005,2.8040829951222794,FIX,1613075561.04387,1613075561.04312,1613075562.44391,1,1,2,low_cue,1613075611.88083,1613075611.87874,398.81092524528503,3,1613075213.06968,low_stim,pain,1613075213.06781,3,5,47
1613075576.5508301,1.38221955299377,1613075576.5489,1613075581.96937,10.6635320186615,1613075581.96759,1613075601.64375,6.189528942108151,1613075601.64159,1613075565.07577,10.470690250396698,1613075565.06128,0.063032865524292,1613075575.55075,h008.png,1613075575.5485198,high_cue,1.86759662628174,60.718572938941,FIX,1613075577.95075,1613075577.94942,1613075579.81701,0,0,0,,,,0,0,Command Recieved: TRIGGER_AND_Response: RESULT_OK,,,1613075592.69648,1613075592.695,high_stim,1.91758680343628,47.772842477595994,FIX,1613075607.8448,1613075607.8439,1613075609.76149,6,1,2,high_cue,1613075611.88083,1613075611.87874,398.81092524528503,3,1613075213.06968,high_stim,pain,1613075213.06781,3,5,48
1611863824.17105,1.2931768894195599,1611863824.16821,1611863829.53848,1.7245101928710902,1611863829.53688,1611863840.2761,4.28717184066772,1611863840.27422,1611863815.87489,7.297936916351321,1611863815.86512,0.0587069988250732,1611863823.1896698,h037.png,1611863823.18451,high_cue,,0.0,,1611863825.5199199,1611863825.51872,,0,0,0,,,,0,0,,,,1611863831.34189,1611863831.3410199,med_stim,2.8513827323913596,0.0,,1611863844.58688,1611863844.57582,1611863847.4272099,5,2,2,high_cue,1611864211.90394,1611864211.89614,398.80450820922897,1,1611863813.09792,med_stim,pain,1611863813.09163,1,5,49
1611863850.38012,1.8834028244018601,1611863850.37799,1611863856.50359,2.0644545555114697,1611863856.4969401,1611863867.57029,1.29365873336792,1611863867.5677302,1611863848.73755,0.6351635456085211,1611863848.72737,0.0372729301452637,1611863849.37974,h007.png,1611863849.37761,high_cue,3.67368483543396,0.0,,1611863852.28638,1611863852.2787,1611863855.9523802,0,0,0,,,,0,0,,,,1611863858.60026,1611863858.59921,low_stim,2.8012833595275897,0.0,,1611863868.8866599,1611863868.88489,1611863871.6861699,4,2,2,high_cue,1611864211.90394,1611864211.89614,398.80450820922897,1,1611863813.09792,low_stim,pain,1611863813.09163,1,5,50
1611863882.47545,1.88810110092163,1611863882.47329,1611863888.67732,2.88578867912292,1611863888.6756,1611863900.58211,8.881349086761471,1611863900.58004,1611863872.92089,8.5428318977356,1611863872.9197302,0.0559818744659424,1611863881.4747,l002.png,1611863881.47292,low_cue,3.7349698543548597,0.0,,1611863884.39208,1611863884.3906698,1611863888.1256402,0,0,0,,,,0,0,,,,1611863891.61966,1611863891.6184,med_stim,2.8693699836730997,0.0,,1611863909.4869199,1611863909.48336,1611863912.35273,2,2,2,low_cue,1611864211.90394,1611864211.89614,398.80450820922897,1,1611863813.09792,med_stim,pain,1611863813.09163,1,5,51
1611863917.17143,1.89182877540588,1611863917.16956,1611863923.10743,3.15628266334534,1611863923.10511,1611863935.27794,4.78507614135742,1611863935.27631,1611863913.52046,2.64425015449524,1611863913.5182,0.0575709342956543,1611863916.17083,h047.png,1611863916.16919,high_cue,3.3685059547424303,0.0,,1611863919.08792,1611863919.08694,1611863922.45545,0,0,0,,,,0,0,,,,1611863926.3219302,1611863926.32013,high_stim,2.17410397529602,0.0,,1611863940.0864198,1611863940.07811,1611863942.25221,6,2,2,high_cue,1611864211.90394,1611864211.89614,398.80450820922897,1,1611863813.09792,high_stim,pain,1611863813.09163,1,5,52
1611863953.67136,1.09488487243652,1611863953.6665099,1611863959.30496,11.5594482421875,1611863959.30194,1611863979.8791802,2.8851103782653795,1611863979.87628,1611863944.11479,8.55002546310425,1611863944.11294,0.0668709278106689,1611863952.68855,h050.png,1611863952.68281,high_cue,3.96870589256287,0.0,,1611863954.7862,1611863954.78359,1611863958.7523,0,0,0,,,,0,0,,,,1611863970.93181,1611863970.92999,high_stim,,0.0,,1611863982.78634,1611863982.77736,,6,2,2,high_cue,1611864211.90394,1611864211.89614,398.80450820922897,1,1611863813.09792,high_stim,pain,1611863813.09163,1,5,53
1611863989.7820802,1.78141808509827,1611863989.77997,1611863996.02045,2.7457599639892596,1611863996.01563,1611864007.7716901,1.29137516021729,1611864007.77002,1611863986.84722,1.9168369770050002,1611863986.84555,0.0463299751281738,1611863988.7832198,l042.png,1611863988.7796,low_cue,3.88826990127563,0.0,,1611863991.58632,1611863991.58065,1611863995.46891,0,0,0,,,,0,0,,,,1611863998.80889,1611863998.80813,high_stim,3.0846545696258505,0.0,,1611864009.08637,1611864009.0705,1611864012.15516,3,2,2,low_cue,1611864211.90394,1611864211.89614,398.80450820922897,1,1611863813.09792,high_stim,pain,1611863813.09163,1,5,54
1611864017.17565,1.28786897659302,1611864017.1735198,1611864022.51037,6.15254473686218,1611864022.50885,1611864037.67034,5.396893501281741,1611864037.6645,1611864013.10371,3.0735833644866903,1611864013.08867,0.0500988960266113,1611864016.17483,h021.png,1611864016.17315,high_cue,3.48493647575378,0.0,,1611864018.48641,1611864018.47401,1611864021.95895,0,0,0,,,,0,0,,,,1611864028.71294,1611864028.71199,med_stim,,0.0,,1611864043.08663,1611864043.08319,,5,2,2,high_cue,1611864211.90394,1611864211.89614,398.80450820922897,1,1611863813.09792,med_stim,pain,1611863813.09163,1,5,55
1611864049.87072,0.992341756820679,1611864049.86905,1611864054.88897,1.4738051891326898,1611864054.88759,1611864065.3765,4.686558961868291,1611864065.37483,1611864047.12033,1.74432563781738,1611864047.1180198,0.0409588813781738,1611864048.87059,h053.png,1611864048.86868,high_cue,3.36816191673279,0.0,,1611864050.8863199,1611864050.8694198,1611864054.23758,0,0,0,,,,0,0,,,,1611864056.40382,1611864056.40298,low_stim,1.47581648826599,0.0,,1611864070.08617,1611864070.07659,1611864071.5524,4,2,2,high_cue,1611864211.90394,1611864211.89614,398.80450820922897,1,1611863813.09792,low_stim,pain,1611863813.09163,1,5,56
1611864076.88125,1.1822683811187702,1611864076.8791199,1611864082.09914,1.7636599540710403,1611864082.0977302,1611864092.8706,9.99297165870667,1611864092.86842,1611864074.1033099,1.7676365375518799,1611864074.09475,0.11042022705078099,1611864075.88008,l019.png,1611864075.87875,low_cue,2.57266759872437,0.0,,1611864078.08759,1611864078.0795698,1611864080.65224,0,0,0,,,,0,0,,,,1611864083.97339,1611864083.9723,high_stim,2.9845757484436,0.0,,1611864102.8729599,1611864102.87215,1611864105.85672,3,2,2,low_cue,1611864211.90394,1611864211.89614,398.80450820922897,1,1611863813.09792,high_stim,pain,1611863813.09163,1,5,57
1611864108.67586,1.88707995414734,1611864108.67431,1611864114.59524,5.36820459365845,1611864114.59319,1611864128.97062,2.8961775302887003,1611864128.96521,1611864106.90401,0.772039890289307,1611864106.89031,0.109283924102783,1611864107.67574,l052.png,1611864107.67394,low_cue,2.32732105255127,0.0,,1611864110.5867,1611864110.5750198,1611864112.90234,0,0,0,,,,0,0,,,,1611864120.07205,1611864120.07118,low_stim,2.70274567604065,0.0,,1611864131.88629,1611864131.8829699,1611864134.58571,1,2,2,low_cue,1611864211.90394,1611864211.89614,398.80450820922897,1,1611863813.09792,low_stim,pain,1611863813.09163,1,5,58
1611864147.0735,1.58942556381226,1611864147.07197,1611864152.6923199,12.070663690567,1611864152.69073,1611864173.77056,1.29613780975342,1611864173.76525,1611864135.9030302,10.1611478328705,1611864135.90113,0.0550069808959961,1611864146.07324,l047.png,1611864146.07159,low_cue,3.1846699714660605,0.0,,1611864148.6863,1611864148.67256,1611864151.8572302,0,0,0,,,,0,0,,,,1611864164.8182302,1611864164.81701,low_stim,3.2365550994873,0.0,,1611864175.08636,1611864175.0824099,1611864178.31897,1,2,2,low_cue,1611864211.90394,1611864211.89614,398.80450820922897,1,1611863813.09792,low_stim,pain,1611863813.09163,1,5,59
1611864186.37126,0.9914376735687259,1611864186.36995,1611864191.39042,1.07321619987488,1611864191.38849,1611864201.47745,6.385803699493411,1611864201.47559,1611864179.10363,6.2616460323333705,1611864179.10058,0.0312469005584717,1611864185.3713,l001.png,1611864185.36958,low_cue,1.93421769142151,0.0,,1611864187.38656,1611864187.37033,1611864189.3045402,0,0,0,,,,0,0,,,,1611864192.49425,1611864192.49351,med_stim,1.69107556343079,0.0,,1611864207.88645,1611864207.87797,1611864209.56905,2,2,2,low_cue,1611864211.90394,1611864211.89614,398.80450820922897,1,1611863813.09792,med_stim,pain,1611863813.09163,1,5,60
1611865637.22123,0.7915439605712891,1611865637.211,1611865642.04746,7.85640811920166,1611865642.04614,1611865658.92137,3.6834487915039102,1611865658.9191,1611865635.12126,1.09388160705566,1611865635.11022,0.0520768165588379,1611865636.22134,h029.png,1611865636.2106302,high_cue,1.32456135749817,0.0,,1611865638.03708,1611865638.0279698,1611865639.35254,0,0,0,,,,0,0,,,,1611865649.9581802,1611865649.9569,med_stim,2.1843886375427197,0.0,,1611865662.62111,1611865662.62048,1611865664.80487,5,1,2,high_cue,1611866031.65411,1611866031.6414301,399.3013651371,5,1611865632.3413,med_stim,pain,1611865632.34006,1,5,61
1611865669.5212,1.4961667060852097,1611865669.50638,1611865675.04352,0.8607699871063229,1611865675.04178,1611865684.9208,3.69042301177979,1611865684.91213,1611865666.65391,1.8648164272308303,1611865666.63865,0.0557358264923096,1611865668.52455,l036.png,1611865668.52268,low_cue,2.90127635002136,0.0,,1611865671.02445,1611865671.0236099,1611865673.92489,0,0,0,,,,0,0,,,,1611865675.9595802,1611865675.95876,med_stim,2.5389680862426802,0.0,,1611865688.61994,1611865688.61351,1611865691.1524699,2,1,2,low_cue,1611866031.65411,1611866031.6414301,399.3013651371,5,1611865632.3413,med_stim,pain,1611865632.34006,1,5,62
1611865696.92083,1.48594498634338,1611865696.9166,1611865702.4373,5.66722059249878,1611865702.4353302,1611865717.1205,6.0950825214385995,1611865717.10747,1611865692.63672,3.2716975212097203,1611865692.63167,0.0707051753997803,1611865695.92091,h048.png,1611865695.91623,high_cue,2.55202746391296,0.0,,1611865698.41989,1611865698.41716,1611865700.9691901,0,0,0,,,,0,0,,,,1611865708.17523,1611865708.17413,low_stim,3.01809811592102,0.0,,1611865723.2272902,1611865723.22641,1611865726.24451,4,1,2,high_cue,1611866031.65411,1611866031.6414301,399.3013651371,5,1611865632.3413,low_stim,pain,1611865632.34006,1,5,63
1611865736.8203,1.48773336410522,1611865736.81481,1611865742.33748,6.8690087795257595,1611865742.33354,1611865758.22027,5.89642143249512,1611865758.20613,1611865727.2623901,8.54212689399719,1611865727.26125,0.0530970096588135,1611865735.82044,l039.png,1611865735.81444,low_cue,2.48716926574707,0.0,,1611865738.31994,1611865738.3153698,1611865740.80254,0,0,0,,,,0,0,,,,1611865749.2576,1611865749.2565699,med_stim,2.16760921478271,0.0,,1611865764.1261199,1611865764.125,1611865766.29261,2,1,2,low_cue,1611866031.65411,1611866031.6414301,399.3013651371,5,1611865632.3413,med_stim,pain,1611865632.34006,1,5,64
1611865772.3202698,2.89116144180298,1611865772.31139,1611865779.24942,8.55524206161499,1611865779.24731,1611865796.8223,5.78202247619629,1611865796.8205302,1611865768.15487,3.16022419929504,1611865768.1431599,0.0309231281280518,1611865771.32055,h034.png,1611865771.31101,high_cue,1.52340149879456,0.0,,1611865775.23003,1611865775.22914,1611865776.75254,0,0,0,,,,0,0,,,,1611865787.8361402,1611865787.8346,high_stim,2.7512068748474103,0.0,,1611865802.6237,1611865802.62269,1611865805.3739,6,1,2,high_cue,1611866031.65411,1611866031.6414301,399.3013651371,5,1611865632.3413,high_stim,pain,1611865632.34006,1,5,65
1611865823.92065,1.38858461380005,1611865823.91396,1611865829.3375099,4.46989750862122,1611865829.33265,1611865842.8227599,1.5815336704254197,1611865842.8210099,1611865806.6543,16.2626082897186,1611865806.64085,0.0407600402832031,1611865822.92077,l055.png,1611865822.91359,low_cue,2.4546890258789102,0.0,,1611865825.31984,1611865825.31449,1611865827.7691698,0,0,0,,,,0,0,,,,1611865833.84444,1611865833.84374,low_stim,2.5510873794555695,0.0,,1611865844.42261,1611865844.4216099,1611865846.9727,1,1,2,low_cue,1611866031.65411,1611866031.6414301,399.3013651371,5,1611865632.3413,low_stim,pain,1611865632.34006,1,5,66
1611865852.52079,0.7945890426635741,1611865852.5079598,1611865857.34457,4.35945272445679,1611865857.3431,1611865870.72109,5.087799072265621,1611865870.71475,1611865848.4581,3.04702544212341,1611865848.45645,0.0946431159973145,1611865851.5209901,l023.png,1611865851.50759,low_cue,2.3010475635528596,0.0,,1611865853.3266,1611865853.3249302,1611865855.6259801,0,0,0,,,,0,0,,,,1611865861.79848,1611865861.7977,high_stim,2.1524858474731396,0.0,,1611865875.8199801,1611865875.81665,1611865877.96914,3,1,2,low_cue,1611866031.65411,1611866031.6414301,399.3013651371,5,1611865632.3413,high_stim,pain,1611865632.34006,1,5,67
1611865885.9223099,0.582127571105957,1611865885.92042,1611865890.5404599,3.3637387752533,1611865890.53881,1611865902.92088,2.89245867729187,1611865902.91009,1611865879.85381,5.05177521705627,1611865879.85149,0.0655558109283447,1611865884.92138,h022.png,1611865884.92005,high_cue,2.05102705955505,0.0,,1611865886.5216699,1611865886.5206401,1611865888.5716698,0,0,0,,,,0,0,,,,1611865893.97005,1611865893.96877,med_stim,2.59133577346802,0.0,,1611865905.81988,1611865905.8111699,1611865908.40251,5,1,2,high_cue,1611866031.65411,1611866031.6414301,399.3013651371,5,1611865632.3413,med_stim,pain,1611865632.34006,1,5,68
1611865915.0206401,0.587945222854614,1611865915.0146,1611865919.6372,0.8695557117462159,1611865919.6329901,1611865929.52191,9.8825364112854,1611865929.52001,1611865909.83725,4.17404127120972,1611865909.82934,0.0764470100402832,1611865914.0202599,h028.png,1611865914.01423,high_cue,1.85439348220825,0.0,,1611865915.61965,1611865915.61483,1611865917.46922,0,0,0,,,,0,0,,,,1611865920.581,1611865920.57966,low_stim,2.45111203193665,0.0,,1611865939.42453,1611865939.4237,1611865941.87482,4,1,2,high_cue,1611866031.65411,1611866031.6414301,399.3013651371,5,1611865632.3413,low_stim,pain,1611865632.34006,1,5,69
1611865945.5209,2.89323902130127,1611865945.50931,1611865952.42952,8.57399225234985,1611865952.42856,1611865970.0209,4.28409886360168,1611865970.01845,1611865943.45419,1.06150221824646,1611865943.44187,0.0833101272583008,1611865944.52051,l002.png,1611865944.50893,low_cue,2.15877842903137,0.0,,1611865948.41978,1611865948.4103901,1611865950.56917,0,0,0,,,,0,0,,,,1611865961.08744,1611865961.08667,high_stim,3.3181746006012003,0.0,,1611865974.3212302,1611865974.32005,1611865977.63823,3,1,2,low_cue,1611866031.65411,1611866031.6414301,399.3013651371,5,1611865632.3413,high_stim,pain,1611865632.34006,1,5,70
1611865982.1208599,0.696259260177612,1611865982.10629,1611865986.84339,0.661158561706543,1611865986.8413901,1611865996.52078,4.09088516235352,1611865996.5116599,1611865978.35413,2.76522254943848,1611865978.33822,0.0427870750427246,1611865981.12433,h023.png,1611865981.12259,high_cue,1.95098257064819,0.0,,1611865982.8245802,1611865982.82322,1611865984.77421,0,0,0,,,,0,0,,,,1611865987.54665,1611865987.54585,high_stim,1.93937110900879,0.0,,1611866000.62031,1611866000.61319,1611866002.5525599,6,1,2,high_cue,1611866031.65411,1611866031.6414301,399.3013651371,5,1611865632.3413,high_stim,pain,1611865632.34006,1,5,71
1611866008.92098,2.88626003265381,1611866008.91629,1611866015.83741,1.6670126914978,1611866015.83554,1611866026.52085,1.09636640548706,1611866026.50618,1611866004.63783,3.2722206115722696,1611866004.63136,0.0368449687957764,1611866007.92082,l018.png,1611866007.91592,low_cue,2.4351625442504905,0.0,,1611866011.82003,1611866011.81737,1611866014.25253,0,0,0,,,,0,0,,,,1611866017.54055,1611866017.53983,low_stim,2.63451194763184,0.0,,1611866027.62459,1611866027.62326,1611866030.25778,1,1,2,low_cue,1611866031.65411,1611866031.6414301,399.3013651371,5,1611865632.3413,low_stim,pain,1611865632.34006,1,5,72
