onset	duration	trial_type	trial_index	cue	stimulusintensity	rating_value	rating_glmslabel	rating_value_fillna	rating_glmslabel_fillna	rating_mouseonset	rating_mousedur	stim_file	correct_response	participant_response	response_accuracy
14.21	0.98	cue	1	low_cue	n/a	n/a	n/a	n/a	n/a	n/a	n/a	l037.png	n/a	n/a	n/a
43.81	0.99	cue	2	low_cue	n/a	n/a	n/a	n/a	n/a	n/a	n/a	l006.png	n/a	n/a	n/a
77.8	0.99	cue	3	high_cue	n/a	n/a	n/a	n/a	n/a	n/a	n/a	h017.png	n/a	n/a	n/a
110.52	0.98	cue	4	low_cue	n/a	n/a	n/a	n/a	n/a	n/a	n/a	l023.png	n/a	n/a	n/a
150.71	0.98	cue	5	high_cue	n/a	n/a	n/a	n/a	n/a	n/a	n/a	h016.png	n/a	n/a	n/a
178.71	0.99	cue	6	low_cue	n/a	n/a	n/a	n/a	n/a	n/a	n/a	l048.png	n/a	n/a	n/a
205.4	0.99	cue	7	low_cue	n/a	n/a	n/a	n/a	n/a	n/a	n/a	l008.png	n/a	n/a	n/a
237.51	0.98	cue	8	high_cue	n/a	n/a	n/a	n/a	n/a	n/a	n/a	h055.png	n/a	n/a	n/a
265.81	0.99	cue	9	high_cue	n/a	n/a	n/a	n/a	n/a	n/a	n/a	h044.png	n/a	n/a	n/a
296.7	0.99	cue	10	high_cue	n/a	n/a	n/a	n/a	n/a	n/a	n/a	h021.png	n/a	n/a	n/a
332.72	0.98	cue	11	high_cue	n/a	n/a	n/a	n/a	n/a	n/a	n/a	h028.png	n/a	n/a	n/a
365.31	0.98	cue	12	low_cue	n/a	n/a	n/a	n/a	n/a	n/a	n/a	l052.png	n/a	n/a	n/a
16.01		expectrating	1	low_cue	n/a			19.45	Moderate	1.27	3.05	l037.png	n/a	n/a	n/a
46.81	2.41	expectrating	2	low_cue	n/a	0.71	No sensation	0.71	No sensation	1.1	1.31	l006.png	n/a	n/a	n/a
80.81		expectrating	3	high_cue	n/a			26.68	Moderate	0.13	3.9	h017.png	n/a	n/a	n/a
112.42		expectrating	4	low_cue	n/a			17.25	Moderate	0.45	3.43	l023.png	n/a	n/a	n/a
152.42		expectrating	5	high_cue	n/a			28.3	Moderate	1.73	3.95	h016.png	n/a	n/a	n/a
181.81	2.82	expectrating	6	low_cue	n/a	17.66	Moderate	17.66	Moderate	1.28	1.54	l048.png	n/a	n/a	n/a
208.42	2.88	expectrating	7	low_cue	n/a	31.44	Strong	31.44	Strong	1.12	1.77	l008.png	n/a	n/a	n/a
239.21	3.18	expectrating	8	high_cue	n/a	46.6	Strong	46.6	Strong	0.05	3.13	h055.png	n/a	n/a	n/a
268.81	3.16	expectrating	9	high_cue	n/a	36.25	Strong	36.25	Strong	0.08	3.07	h044.png	n/a	n/a	n/a
299.5	3.2	expectrating	10	high_cue	n/a	49.32	Strong	49.32	Strong	0.75	2.45	h021.png	n/a	n/a	n/a
335.62	2.55	expectrating	11	high_cue	n/a	27.44	Moderate	27.44	Moderate	0.35	2.2	h028.png	n/a	n/a	n/a
367.21	2.32	expectrating	12	low_cue	n/a	2.53	Barely detectable	2.53	Barely detectable	0.82	1.5	l052.png	n/a	n/a	n/a
26.72	6.99	stimulus	1	low_cue	low_stim	n/a	n/a	n/a	n/a	n/a	n/a	7_50.jpg	same	diff	False
57.51	7.0	stimulus	2	low_cue	med_stim	n/a	n/a	n/a	n/a	n/a	n/a	35_100.jpg	same	diff	False
87.61	7.0	stimulus	3	high_cue	med_stim	n/a	n/a	n/a	n/a	n/a	n/a	1_100_R.jpg	diff		False
125.91	7.0	stimulus	4	low_cue	high_stim	n/a	n/a	n/a	n/a	n/a	n/a	1_150.jpg	same	same	True
160.92	6.99	stimulus	5	high_cue	med_stim	n/a	n/a	n/a	n/a	n/a	n/a	24_100_R.jpg	diff	diff	True
190.01	7.0	stimulus	6	low_cue	high_stim	n/a	n/a	n/a	n/a	n/a	n/a	26_150_R.jpg	diff		False
219.71	7.0	stimulus	7	low_cue	low_stim	n/a	n/a	n/a	n/a	n/a	n/a	26_50_R.jpg	diff	diff	True
246.02	6.99	stimulus	8	high_cue	high_stim	n/a	n/a	n/a	n/a	n/a	n/a	22_150.jpg	same	same	True
277.01	7.0	stimulus	9	high_cue	high_stim	n/a	n/a	n/a	n/a	n/a	n/a	24_150_R.jpg	diff	diff	True
316.11	7.0	stimulus	10	high_cue	low_stim	n/a	n/a	n/a	n/a	n/a	n/a	20_50.jpg	same	same	True
346.5	7.0	stimulus	11	high_cue	low_stim	n/a	n/a	n/a	n/a	n/a	n/a	1_50_R.jpg	diff	diff	True
380.82	6.99	stimulus	12	low_cue	med_stim	n/a	n/a	n/a	n/a	n/a	n/a	20_100_R.jpg	diff	diff	True
37.71	3.89	outcomerating	1	low_cue	low_stim	3.03	Weak	3.03	Weak	1.13	2.76	task-cognitive_scale.png	n/a	n/a	n/a
69.32		outcomerating	2	low_cue	med_stim			3.0	Barely detectable	0.47	2.97	task-cognitive_scale.png	n/a	n/a	n/a
97.41		outcomerating	3	high_cue	med_stim			70.0	Very Strong	1.02	2.97	task-cognitive_scale.png	n/a	n/a	n/a
136.11	2.54	outcomerating	4	low_cue	high_stim	5.76	Weak	5.76	Weak	0.57	1.97	task-cognitive_scale.png	n/a	n/a	n/a
173.81		outcomerating	5	high_cue	med_stim			61.55	Strong	0.9	3.08	task-cognitive_scale.png	n/a	n/a	n/a
200.12	3.07	outcomerating	6	low_cue	high_stim	59.84	Strong	59.84	Strong	0.2	2.87	task-cognitive_scale.png	n/a	n/a	n/a
232.61	2.02	outcomerating	7	low_cue	low_stim	16.32	Moderate	16.32	Moderate	0.62	1.4	task-cognitive_scale.png	n/a	n/a	n/a
257.9	2.43	outcomerating	8	high_cue	high_stim	10.68	Moderate	10.68	Moderate	0.85	1.58	task-cognitive_scale.png	n/a	n/a	n/a
288.02	3.17	outcomerating	9	high_cue	high_stim	14.04	Moderate	14.04	Moderate	0.92	2.25	task-cognitive_scale.png	n/a	n/a	n/a
327.01	2.13	outcomerating	10	high_cue	low_stim	4.8	Weak	4.8	Weak	0.08	2.05	task-cognitive_scale.png	n/a	n/a	n/a
358.51		outcomerating	11	high_cue	low_stim			11.58	Moderate	0.78	3.17	task-cognitive_scale.png	n/a	n/a	n/a
394.51	3.99	outcomerating	12	low_cue	med_stim	37.94	Strong	37.94	Strong	1.8	2.19	task-cognitive_scale.png	n/a	n/a	n/a
