onset	duration	trial_type	trial_index	cue	stimulusintensity	rating_value	rating_glmslabel	rating_value_fillna	rating_glmslabel_fillna	rating_mouseonset	rating_mousedur	stim_file	onset_ttl1	onset_ttl2	onset_ttl3	onset_ttl4	stimulus_delivery_success
5.69	1.0	cue	1	high_cue	n/a	n/a	n/a	n/a	n/a	n/a	n/a	h024.png	n/a	n/a	n/a	n/a	n/a
28.99	1.0	cue	2	low_cue	n/a	n/a	n/a	n/a	n/a	n/a	n/a	l046.png	n/a	n/a	n/a	n/a	n/a
59.79	1.0	cue	3	low_cue	n/a	n/a	n/a	n/a	n/a	n/a	n/a	l017.png	n/a	n/a	n/a	n/a	n/a
94.89	1.0	cue	4	high_cue	n/a	n/a	n/a	n/a	n/a	n/a	n/a	h039.png	n/a	n/a	n/a	n/a	n/a
119.99	1.0	cue	5	low_cue	n/a	n/a	n/a	n/a	n/a	n/a	n/a	l013.png	n/a	n/a	n/a	n/a	n/a
162.39	1.0	cue	6	high_cue	n/a	n/a	n/a	n/a	n/a	n/a	n/a	h032.png	n/a	n/a	n/a	n/a	n/a
215.4	1.0	cue	7	low_cue	n/a	n/a	n/a	n/a	n/a	n/a	n/a	l022.png	n/a	n/a	n/a	n/a	n/a
251.69	1.0	cue	8	high_cue	n/a	n/a	n/a	n/a	n/a	n/a	n/a	h014.png	n/a	n/a	n/a	n/a	n/a
279.99	1.0	cue	9	high_cue	n/a	n/a	n/a	n/a	n/a	n/a	n/a	h001.png	n/a	n/a	n/a	n/a	n/a
308.4	0.98	cue	10	low_cue	n/a	n/a	n/a	n/a	n/a	n/a	n/a	l004.png	n/a	n/a	n/a	n/a	n/a
341.09	1.0	cue	11	high_cue	n/a	n/a	n/a	n/a	n/a	n/a	n/a	h011.png	n/a	n/a	n/a	n/a	n/a
374.29	1.0	cue	12	low_cue	n/a	n/a	n/a	n/a	n/a	n/a	n/a	l056.png	n/a	n/a	n/a	n/a	n/a
8.3		expectrating	1	high_cue	n/a			93.04	Very Strong	0.05	1.1	h024.png	n/a	n/a	n/a	n/a	n/a
32.0		expectrating	2	low_cue	n/a							l046.png	n/a	n/a	n/a	n/a	n/a
62.19		expectrating	3	low_cue	n/a			59.85	Strong	2.08	3.2	l017.png	n/a	n/a	n/a	n/a	n/a
97.29		expectrating	4	high_cue	n/a			80.09	Very Strong	0.4	0.87	h039.png	n/a	n/a	n/a	n/a	n/a
123.0		expectrating	5	low_cue	n/a			87.69	Very Strong	0.83	3.17	l013.png	n/a	n/a	n/a	n/a	n/a
165.39		expectrating	6	high_cue	n/a			74.34	Very Strong	1.23	2.67	h032.png	n/a	n/a	n/a	n/a	n/a
217.6		expectrating	7	low_cue	n/a			66.53	Very Strong	1.0	1.12	l022.png	n/a	n/a	n/a	n/a	n/a
254.29		expectrating	8	high_cue	n/a			81.71	Very Strong	0.05	0.5	h014.png	n/a	n/a	n/a	n/a	n/a
281.89		expectrating	9	high_cue	n/a			79.63	Very Strong	0.05	0.57	h001.png	n/a	n/a	n/a	n/a	n/a
311.4		expectrating	10	low_cue	n/a			103.58	Strongest sensation of any kind	0.28	0.77	l004.png	n/a	n/a	n/a	n/a	n/a
342.99		expectrating	11	high_cue	n/a			82.36	Very Strong	0.15	1.3	h011.png	n/a	n/a	n/a	n/a	n/a
376.19		expectrating	12	low_cue	n/a			69.33	Very Strong	0.45	0.57	l056.png	n/a	n/a	n/a	n/a	n/a
12.94	12.56	stimulus	1	high_cue	high_stim	n/a	n/a	n/a	n/a	n/a	n/a	50c	12.53	16.49	21.49	25.1	success
41.91	12.65	stimulus	2	low_cue	high_stim	n/a	n/a	n/a	n/a	n/a	n/a	50c	41.54	45.48	50.48	54.18	success
67.22	12.76	stimulus	3	low_cue	high_stim	n/a	n/a	n/a	n/a	n/a	n/a	50c	66.83	70.84	75.84	79.59	success
102.51	12.73	stimulus	4	high_cue	high_stim	n/a	n/a	n/a	n/a	n/a	n/a	50c	102.13	106.13	111.13	114.87	success
138.21	11.89	stimulus	5	low_cue	low_stim	n/a	n/a	n/a	n/a	n/a	n/a	48c	137.83	141.35	146.35	149.72	success
189.12	11.9	stimulus	6	high_cue	low_stim	n/a	n/a	n/a	n/a	n/a	n/a	48c	188.74	192.29	197.29	200.64	success
225.01	12.36	stimulus	7	low_cue	med_stim	n/a	n/a	n/a	n/a	n/a	n/a	49c	224.63	228.43	233.43	236.99	success
258.91	12.34	stimulus	8	high_cue	med_stim	n/a	n/a	n/a	n/a	n/a	n/a	49c	258.53	262.33	267.33	270.88	success
287.93	12.3	stimulus	9	high_cue	med_stim	n/a	n/a	n/a	n/a	n/a	n/a	49c	287.55	291.29	296.29	299.85	success
317.03	12.32	stimulus	10	low_cue	med_stim	n/a	n/a	n/a	n/a	n/a	n/a	49c	316.65	320.41	325.41	328.98	success
352.94	11.99	stimulus	11	high_cue	low_stim	n/a	n/a	n/a	n/a	n/a	n/a	48c	352.55	356.15	361.15	364.55	success
381.03	11.89	stimulus	12	low_cue	low_stim	n/a	n/a	n/a	n/a	n/a	n/a	48c	380.65	384.15	389.16	392.54	success
23.89		outcomerating	1	high_cue	high_stim			114.1	Strongest sensation of any kind	0.63	1.82	task-pain_scale.png	n/a	n/a	n/a	n/a	success
55.19		outcomerating	2	low_cue	high_stim			89.08	Very Strong	0.38	1.83	task-pain_scale.png	n/a	n/a	n/a	n/a	success
81.7		outcomerating	3	low_cue	high_stim			79.86	Very Strong	0.6	1.57	task-pain_scale.png	n/a	n/a	n/a	n/a	success
115.39		outcomerating	4	high_cue	high_stim			83.58	Very Strong	0.37	0.45	task-pain_scale.png	n/a	n/a	n/a	n/a	success
151.49		outcomerating	5	low_cue	low_stim			53.13	Strong	0.38	2.33	task-pain_scale.png	n/a	n/a	n/a	n/a	success
207.79		outcomerating	6	high_cue	low_stim			39.63	Strong	0.05	1.75	task-pain_scale.png	n/a	n/a	n/a	n/a	success
240.59		outcomerating	7	low_cue	med_stim			75.85	Very Strong	0.35	1.75	task-pain_scale.png	n/a	n/a	n/a	n/a	success
270.1		outcomerating	8	high_cue	med_stim			94.42	Very Strong	0.73	0.98	task-pain_scale.png	n/a	n/a	n/a	n/a	success
299.29		outcomerating	9	high_cue	med_stim			98.62	Strongest sensation of any kind	0.78	0.72	task-pain_scale.png	n/a	n/a	n/a	n/a	success
331.49		outcomerating	10	low_cue	med_stim			90.0	Very Strong	0.08	2.72	task-pain_scale.png	n/a	n/a	n/a	n/a	success
364.69		outcomerating	11	high_cue	low_stim			70.9	Very Strong	0.55	2.93	task-pain_scale.png	n/a	n/a	n/a	n/a	success
395.0		outcomerating	12	low_cue	low_stim			69.06	Very Strong	0.3	0.63	task-pain_scale.png	n/a	n/a	n/a	n/a	success
