onset	duration	trial_type	trial_index	cue	stimulusintensity	rating_value	rating_glmslabel	rating_value_fillna	rating_glmslabel_fillna	rating_mouseonset	rating_mousedur	stim_file	correct_response	participant_response	response_accuracy
9.79	0.99	cue	1	high_cue	n/a	n/a	n/a	n/a	n/a	n/a	n/a	h051.png	n/a	n/a	n/a
41.5	0.98	cue	2	high_cue	n/a	n/a	n/a	n/a	n/a	n/a	n/a	h023.png	n/a	n/a	n/a
67.39	0.99	cue	3	low_cue	n/a	n/a	n/a	n/a	n/a	n/a	n/a	l013.png	n/a	n/a	n/a
96.79	0.99	cue	4	high_cue	n/a	n/a	n/a	n/a	n/a	n/a	n/a	h006.png	n/a	n/a	n/a
128.4	0.98	cue	5	high_cue	n/a	n/a	n/a	n/a	n/a	n/a	n/a	h003.png	n/a	n/a	n/a
171.0	0.98	cue	6	low_cue	n/a	n/a	n/a	n/a	n/a	n/a	n/a	l012.png	n/a	n/a	n/a
198.29	0.99	cue	7	low_cue	n/a	n/a	n/a	n/a	n/a	n/a	n/a	l055.png	n/a	n/a	n/a
234.89	0.99	cue	8	low_cue	n/a	n/a	n/a	n/a	n/a	n/a	n/a	l005.png	n/a	n/a	n/a
262.2	0.98	cue	9	high_cue	n/a	n/a	n/a	n/a	n/a	n/a	n/a	h040.png	n/a	n/a	n/a
291.09	0.99	cue	10	low_cue	n/a	n/a	n/a	n/a	n/a	n/a	n/a	l019.png	n/a	n/a	n/a
336.59	0.99	cue	11	high_cue	n/a	n/a	n/a	n/a	n/a	n/a	n/a	h022.png	n/a	n/a	n/a
371.59	0.99	cue	12	low_cue	n/a	n/a	n/a	n/a	n/a	n/a	n/a	l035.png	n/a	n/a	n/a
12.51		expectrating	1	high_cue	n/a			70.89	Very Strong	0.05	1.32	h051.png	n/a	n/a	n/a
43.0		expectrating	2	high_cue	n/a			74.18	Very Strong	0.35	0.88	h023.png	n/a	n/a	n/a
69.49		expectrating	3	low_cue	n/a			25.11	Moderate	0.05	1.42	l013.png	n/a	n/a	n/a
100.69		expectrating	4	high_cue	n/a			65.46	Very Strong	0.65	1.98	h006.png	n/a	n/a	n/a
132.3		expectrating	5	high_cue	n/a			52.99	Strong	0.65	2.97	h003.png	n/a	n/a	n/a
174.9		expectrating	6	low_cue	n/a			28.63	Moderate	0.67	2.32	l012.png	n/a	n/a	n/a
199.79		expectrating	7	low_cue	n/a			21.42	Moderate	0.35	3.73	l055.png	n/a	n/a	n/a
236.99		expectrating	8	low_cue	n/a			24.2	Moderate	0.1	1.87	l005.png	n/a	n/a	n/a
264.9		expectrating	9	high_cue	n/a			45.87	Strong	1.48	2.23	h040.png	n/a	n/a	n/a
293.29		expectrating	10	low_cue	n/a			23.94	Moderate	0.88	3.68	l019.png	n/a	n/a	n/a
338.29		expectrating	11	high_cue	n/a			52.81	Strong	0.77	3.55	h022.png	n/a	n/a	n/a
373.39		expectrating	12	low_cue	n/a			29.74	Strong	0.18	1.73	l035.png	n/a	n/a	n/a
24.19	7.0	stimulus	1	high_cue	med_stim	n/a	n/a	n/a	n/a	n/a	n/a	14_100.jpg	same	same	True
51.1	6.99	stimulus	2	high_cue	high_stim	n/a	n/a	n/a	n/a	n/a	n/a	28_150.jpg	same	same	True
77.7	7.0	stimulus	3	low_cue	high_stim	n/a	n/a	n/a	n/a	n/a	n/a	28_150_R.jpg	diff	diff	True
110.89	7.0	stimulus	4	high_cue	low_stim	n/a	n/a	n/a	n/a	n/a	n/a	44_50_R.jpg	diff	diff	True
147.01	6.99	stimulus	5	high_cue	med_stim	n/a	n/a	n/a	n/a	n/a	n/a	27_100.jpg	same	same	True
181.79	7.0	stimulus	6	low_cue	low_stim	n/a	n/a	n/a	n/a	n/a	n/a	22_50_R.jpg	diff	diff	True
210.1	7.0	stimulus	7	low_cue	med_stim	n/a	n/a	n/a	n/a	n/a	n/a	27_100_R.jpg	diff	diff	True
246.29	7.0	stimulus	8	low_cue	med_stim	n/a	n/a	n/a	n/a	n/a	n/a	28_100_R.jpg	diff	diff	True
274.19	7.0	stimulus	9	high_cue	high_stim	n/a	n/a	n/a	n/a	n/a	n/a	26_150.jpg	same	same	True
308.0	6.99	stimulus	10	low_cue	low_stim	n/a	n/a	n/a	n/a	n/a	n/a	27_50_R.jpg	diff	diff	True
354.0	6.99	stimulus	11	high_cue	low_stim	n/a	n/a	n/a	n/a	n/a	n/a	7_50_R.jpg	diff	diff	True
380.29	7.0	stimulus	12	low_cue	high_stim	n/a	n/a	n/a	n/a	n/a	n/a	19_150.jpg	same	diff	False
33.0		outcomerating	1	high_cue	med_stim			33.1	Strong	0.05	1.25	task-cognitive_scale.png	n/a	n/a	n/a
59.49		outcomerating	2	high_cue	high_stim			27.5	Moderate	0.35	0.18	task-cognitive_scale.png	n/a	n/a	n/a
87.5		outcomerating	3	low_cue	high_stim			32.11	Strong	0.37	0.72	task-cognitive_scale.png	n/a	n/a	n/a
119.3		outcomerating	4	high_cue	low_stim			52.76	Strong	0.47	1.17	task-cognitive_scale.png	n/a	n/a	n/a
156.81		outcomerating	5	high_cue	med_stim			33.18	Strong	0.4	2.12	task-cognitive_scale.png	n/a	n/a	n/a
191.69		outcomerating	6	low_cue	low_stim			11.68	Moderate	0.58	2.38	task-cognitive_scale.png	n/a	n/a	n/a
228.9		outcomerating	7	low_cue	med_stim			23.77	Moderate	0.5	1.7	task-cognitive_scale.png	n/a	n/a	n/a
256.2		outcomerating	8	low_cue	med_stim			9.95	Weak	0.68	0.58	task-cognitive_scale.png	n/a	n/a	n/a
285.81		outcomerating	9	high_cue	high_stim			61.79	Strong	0.42	2.43	task-cognitive_scale.png	n/a	n/a	n/a
322.99		outcomerating	10	low_cue	low_stim			11.08	Moderate	0.08	0.52	task-cognitive_scale.png	n/a	n/a	n/a
367.11		outcomerating	11	high_cue	low_stim			27.69	Moderate	0.95	1.23	task-cognitive_scale.png	n/a	n/a	n/a
394.8		outcomerating	12	low_cue	high_stim			30.06	Strong	0.05	2.63	task-cognitive_scale.png	n/a	n/a	n/a
