onset	duration	trial_type	trial_index	cue	stimulusintensity	rating_value	rating_glmslabel	rating_value_fillna	rating_glmslabel_fillna	rating_mouseonset	rating_mousedur	stim_file	onset_ttl1	onset_ttl2	onset_ttl3	onset_ttl4	stimulus_delivery_success
13.4	1.0	cue	1	low_cue	n/a	n/a	n/a	n/a	n/a	n/a	n/a	l049.png	n/a	n/a	n/a	n/a	n/a
43.0	1.0	cue	2	low_cue	n/a	n/a	n/a	n/a	n/a	n/a	n/a	l032.png	n/a	n/a	n/a	n/a	n/a
78.69	1.0	cue	3	high_cue	n/a	n/a	n/a	n/a	n/a	n/a	n/a	h030.png	n/a	n/a	n/a	n/a	n/a
113.89	1.0	cue	4	low_cue	n/a	n/a	n/a	n/a	n/a	n/a	n/a	l004.png	n/a	n/a	n/a	n/a	n/a
151.7	0.98	cue	5	high_cue	n/a	n/a	n/a	n/a	n/a	n/a	n/a	h049.png	n/a	n/a	n/a	n/a	n/a
178.8	1.0	cue	6	low_cue	n/a	n/a	n/a	n/a	n/a	n/a	n/a	l024.png	n/a	n/a	n/a	n/a	n/a
207.19	1.0	cue	7	low_cue	n/a	n/a	n/a	n/a	n/a	n/a	n/a	l050.png	n/a	n/a	n/a	n/a	n/a
237.6	1.0	cue	8	high_cue	n/a	n/a	n/a	n/a	n/a	n/a	n/a	h047.png	n/a	n/a	n/a	n/a	n/a
268.3	1.0	cue	9	high_cue	n/a	n/a	n/a	n/a	n/a	n/a	n/a	h054.png	n/a	n/a	n/a	n/a	n/a
300.09	1.0	cue	10	high_cue	n/a	n/a	n/a	n/a	n/a	n/a	n/a	h027.png	n/a	n/a	n/a	n/a	n/a
333.59	1.0	cue	11	high_cue	n/a	n/a	n/a	n/a	n/a	n/a	n/a	h046.png	n/a	n/a	n/a	n/a	n/a
367.0	1.0	cue	12	low_cue	n/a	n/a	n/a	n/a	n/a	n/a	n/a	l015.png	n/a	n/a	n/a	n/a	n/a
15.23	2.24	expectrating	1	low_cue	n/a	42.82	Strong	42.82	Strong	0.75	1.49	l049.png	n/a	n/a	n/a	n/a	n/a
46.0	1.88	expectrating	2	low_cue	n/a	23.59	Moderate	23.59	Moderate	0.48	1.4	l032.png	n/a	n/a	n/a	n/a	n/a
81.71	2.73	expectrating	3	high_cue	n/a	47.28	Strong	47.28	Strong	0.57	2.17	h030.png	n/a	n/a	n/a	n/a	n/a
115.81	1.65	expectrating	4	low_cue	n/a	35.99	Strong	35.99	Strong	0.52	1.14	l004.png	n/a	n/a	n/a	n/a	n/a
153.4	2.74	expectrating	5	high_cue	n/a	46.82	Strong	46.82	Strong	0.75	1.99	h049.png	n/a	n/a	n/a	n/a	n/a
181.9	1.92	expectrating	6	low_cue	n/a	37.19	Strong	37.19	Strong	0.48	1.43	l024.png	n/a	n/a	n/a	n/a	n/a
210.19		expectrating	7	low_cue	n/a			49.22	Strong	3.37	3.98	l050.png	n/a	n/a	n/a	n/a	n/a
239.3	1.68	expectrating	8	high_cue	n/a	46.78	Strong	46.78	Strong	0.45	1.23	h047.png	n/a	n/a	n/a	n/a	n/a
271.3	2.13	expectrating	9	high_cue	n/a	63.64	Strong	63.64	Strong	0.55	1.58	h054.png	n/a	n/a	n/a	n/a	n/a
302.89	1.4	expectrating	10	high_cue	n/a	60.83	Strong	60.83	Strong	0.32	1.08	h027.png	n/a	n/a	n/a	n/a	n/a
336.5	2.08	expectrating	11	high_cue	n/a	63.54	Strong	63.54	Strong	0.45	1.63	h046.png	n/a	n/a	n/a	n/a	n/a
368.9	1.48	expectrating	12	low_cue	n/a	34.07	Strong	34.07	Strong	0.48	1.0	l015.png	n/a	n/a	n/a	n/a	n/a
23.96	35.87	stimulus	1	low_cue	low_stim	n/a	n/a	n/a	n/a	n/a	n/a	48c	23.96	27.46	32.46	35.86	success
54.75	67.11	stimulus	2	low_cue	med_stim	n/a	n/a	n/a	n/a	n/a	n/a	49c	54.75	58.51	63.51	67.12	success
86.53	98.9	stimulus	3	high_cue	med_stim	n/a	n/a	n/a	n/a	n/a	n/a	49c	86.53	90.29	95.29	98.9	success
123.25	136.07	stimulus	4	low_cue	high_stim	n/a	n/a	n/a	n/a	n/a	n/a	50c	123.25	127.26	132.26	136.07	success
159.92	172.28	stimulus	5	high_cue	med_stim	n/a	n/a	n/a	n/a	n/a	n/a	49c	159.92	163.68	168.68	172.29	success
188.16	200.98	stimulus	6	low_cue	high_stim	n/a	n/a	n/a	n/a	n/a	n/a	50c	188.16	192.17	197.17	200.98	success
219.52	231.43	stimulus	7	low_cue	low_stim	n/a	n/a	n/a	n/a	n/a	n/a	48c	219.52	223.02	228.02	231.42	success
248.23	261.05	stimulus	8	high_cue	high_stim	n/a	n/a	n/a	n/a	n/a	n/a	50c	248.23	252.24	257.24	261.05	success
277.53	290.35	stimulus	9	high_cue	high_stim	n/a	n/a	n/a	n/a	n/a	n/a	50c	277.53	281.54	286.54	290.35	success
317.53	329.43	stimulus	10	high_cue	low_stim	n/a	n/a	n/a	n/a	n/a	n/a	48c	317.53	321.03	326.03	329.43	success
345.42	357.33	stimulus	11	high_cue	low_stim	n/a	n/a	n/a	n/a	n/a	n/a	48c	345.42	348.92	353.92	357.32	success
380.51	392.88	stimulus	12	low_cue	med_stim	n/a	n/a	n/a	n/a	n/a	n/a	49c	380.51	384.27	389.27	392.88	success
36.89		outcomerating	1	low_cue	low_stim			53.22	Strong	0.72	2.7	task-pain_scale.png	n/a	n/a	n/a	n/a	success
70.21	3.05	outcomerating	2	low_cue	med_stim	48.08	Strong	48.08	Strong	0.82	2.24	task-pain_scale.png	n/a	n/a	n/a	n/a	success
100.0	2.66	outcomerating	3	high_cue	med_stim	52.17	Strong	52.17	Strong	0.9	1.76	task-pain_scale.png	n/a	n/a	n/a	n/a	success
137.11	2.37	outcomerating	4	low_cue	high_stim	55.1	Strong	55.1	Strong	0.78	1.58	task-pain_scale.png	n/a	n/a	n/a	n/a	success
173.09	2.4	outcomerating	5	high_cue	med_stim	40.13	Strong	40.13	Strong	0.63	1.77	task-pain_scale.png	n/a	n/a	n/a	n/a	success
201.9	2.66	outcomerating	6	low_cue	high_stim	49.87	Strong	49.87	Strong	0.65	2.01	task-pain_scale.png	n/a	n/a	n/a	n/a	success
232.7	2.38	outcomerating	7	low_cue	low_stim	28.21	Moderate	28.21	Moderate	0.52	1.87	task-pain_scale.png	n/a	n/a	n/a	n/a	success
260.39	2.18	outcomerating	8	high_cue	high_stim	51.05	Strong	51.05	Strong	0.78	1.4	task-pain_scale.png	n/a	n/a	n/a	n/a	success
292.2	1.96	outcomerating	9	high_cue	high_stim	48.77	Strong	48.77	Strong	0.52	1.44	task-pain_scale.png	n/a	n/a	n/a	n/a	success
328.7	2.32	outcomerating	10	high_cue	low_stim	31.98	Strong	31.98	Strong	0.57	1.76	task-pain_scale.png	n/a	n/a	n/a	n/a	success
359.4	1.98	outcomerating	11	high_cue	low_stim	51.38	Strong	51.38	Strong	0.53	1.45	task-pain_scale.png	n/a	n/a	n/a	n/a	success
394.49	2.73	outcomerating	12	low_cue	med_stim	53.36	Strong	53.36	Strong	0.45	2.28	task-pain_scale.png	n/a	n/a	n/a	n/a	success
