onset	duration	trial_type	trial_index	cue	stimulusintensity	rating_value	rating_glmslabel	rating_value_fillna	rating_glmslabel_fillna	rating_mouseonset	rating_mousedur	stim_file	correct_response	participant_response	response_accuracy
11.59	0.99	cue	1	low_cue	n/a	n/a	n/a	n/a	n/a	n/a	n/a	l042.png	n/a	n/a	n/a
42.38	1.0	cue	2	high_cue	n/a	n/a	n/a	n/a	n/a	n/a	n/a	h029.png	n/a	n/a	n/a
74.2	0.98	cue	3	high_cue	n/a	n/a	n/a	n/a	n/a	n/a	n/a	h025.png	n/a	n/a	n/a
110.59	0.99	cue	4	high_cue	n/a	n/a	n/a	n/a	n/a	n/a	n/a	h024.png	n/a	n/a	n/a
139.89	0.99	cue	5	low_cue	n/a	n/a	n/a	n/a	n/a	n/a	n/a	l040.png	n/a	n/a	n/a
181.29	0.99	cue	6	low_cue	n/a	n/a	n/a	n/a	n/a	n/a	n/a	l050.png	n/a	n/a	n/a
216.1	0.98	cue	7	low_cue	n/a	n/a	n/a	n/a	n/a	n/a	n/a	l032.png	n/a	n/a	n/a
250.4	0.98	cue	8	low_cue	n/a	n/a	n/a	n/a	n/a	n/a	n/a	l026.png	n/a	n/a	n/a
287.69	0.99	cue	9	high_cue	n/a	n/a	n/a	n/a	n/a	n/a	n/a	h053.png	n/a	n/a	n/a
317.99	0.99	cue	10	high_cue	n/a	n/a	n/a	n/a	n/a	n/a	n/a	h048.png	n/a	n/a	n/a
343.9	0.98	cue	11	high_cue	n/a	n/a	n/a	n/a	n/a	n/a	n/a	h056.png	n/a	n/a	n/a
374.79	0.99	cue	12	low_cue	n/a	n/a	n/a	n/a	n/a	n/a	n/a	l021.png	n/a	n/a	n/a
14.81	1.52	expectrating	1	low_cue	n/a	40.55	Strong	40.55	Strong	0.45	1.07	l042.png	n/a	n/a	n/a
44.2	2.13	expectrating	2	high_cue	n/a	54.33	Strong	54.33	Strong	0.5	1.63	h029.png	n/a	n/a	n/a
77.4	1.82	expectrating	3	high_cue	n/a	52.17	Strong	52.17	Strong	0.47	1.35	h025.png	n/a	n/a	n/a
113.29	1.9	expectrating	4	high_cue	n/a	55.48	Strong	55.48	Strong	0.52	1.39	h024.png	n/a	n/a	n/a
143.11	1.75	expectrating	5	low_cue	n/a	31.83	Strong	31.83	Strong	0.58	1.17	l040.png	n/a	n/a	n/a
183.7	1.58	expectrating	6	low_cue	n/a	45.65	Strong	45.65	Strong	0.35	1.23	l050.png	n/a	n/a	n/a
218.7	1.7	expectrating	7	low_cue	n/a	45.17	Strong	45.17	Strong	0.38	1.32	l032.png	n/a	n/a	n/a
253.1	1.54	expectrating	8	low_cue	n/a	51.84	Strong	51.84	Strong	0.4	1.14	l026.png	n/a	n/a	n/a
289.49	1.4	expectrating	9	high_cue	n/a	68.58	Very Strong	68.58	Very Strong	0.45	0.95	h053.png	n/a	n/a	n/a
320.59	1.72	expectrating	10	high_cue	n/a	55.03	Strong	55.03	Strong	0.52	1.2	h048.png	n/a	n/a	n/a
345.7	1.92	expectrating	11	high_cue	n/a	57.53	Strong	57.53	Strong	0.38	1.53	h056.png	n/a	n/a	n/a
376.69	2.04	expectrating	12	low_cue	n/a	42.24	Strong	42.24	Strong	0.47	1.57	l021.png	n/a	n/a	n/a
21.51	6.99	stimulus	1	low_cue	low_stim	n/a	n/a	n/a	n/a	n/a	n/a	24_50.jpg	same	same	True
57.49	7.0	stimulus	2	high_cue	med_stim	n/a	n/a	n/a	n/a	n/a	n/a	19_100_R.jpg	diff		False
85.1	6.99	stimulus	3	high_cue	low_stim	n/a	n/a	n/a	n/a	n/a	n/a	35_50_R.jpg	diff	diff	True
120.0	7.0	stimulus	4	high_cue	high_stim	n/a	n/a	n/a	n/a	n/a	n/a	19_150_R.jpg	diff	diff	True
156.79	7.0	stimulus	5	low_cue	med_stim	n/a	n/a	n/a	n/a	n/a	n/a	44_100.jpg	same		False
196.79	7.0	stimulus	6	low_cue	high_stim	n/a	n/a	n/a	n/a	n/a	n/a	20_150_R.jpg	diff	diff	True
235.79	7.0	stimulus	7	low_cue	med_stim	n/a	n/a	n/a	n/a	n/a	n/a	14_100_R.jpg	diff	same	False
265.8	7.0	stimulus	8	low_cue	high_stim	n/a	n/a	n/a	n/a	n/a	n/a	24_150.jpg	same		False
297.1	7.0	stimulus	9	high_cue	low_stim	n/a	n/a	n/a	n/a	n/a	n/a	26_50.jpg	same	same	True
328.19	7.0	stimulus	10	high_cue	high_stim	n/a	n/a	n/a	n/a	n/a	n/a	44_150_R.jpg	diff	same	False
357.8	6.99	stimulus	11	high_cue	med_stim	n/a	n/a	n/a	n/a	n/a	n/a	35_100_R.jpg	diff	same	False
384.3	7.0	stimulus	12	low_cue	low_stim	n/a	n/a	n/a	n/a	n/a	n/a	20_50_R.jpg	diff	diff	True
36.9	2.97	outcomerating	1	low_cue	low_stim	32.42	Strong	32.42	Strong	1.1	1.87	task-cognitive_scale.png	n/a	n/a	n/a
67.49	3.35	outcomerating	2	high_cue	med_stim	63.33	Strong	63.33	Strong	1.1	2.25	task-cognitive_scale.png	n/a	n/a	n/a
96.61	2.63	outcomerating	3	high_cue	low_stim	64.79	Very Strong	64.79	Very Strong	1.12	1.52	task-cognitive_scale.png	n/a	n/a	n/a
133.2	2.4	outcomerating	4	high_cue	high_stim	46.47	Strong	46.47	Strong	1.05	1.35	task-cognitive_scale.png	n/a	n/a	n/a
165.7	2.08	outcomerating	5	low_cue	med_stim	62.2	Strong	62.2	Strong	0.72	1.37	task-cognitive_scale.png	n/a	n/a	n/a
210.4	2.38	outcomerating	6	low_cue	high_stim	42.79	Strong	42.79	Strong	1.08	1.3	task-cognitive_scale.png	n/a	n/a	n/a
244.49	2.24	outcomerating	7	low_cue	med_stim	49.55	Strong	49.55	Strong	0.95	1.29	task-cognitive_scale.png	n/a	n/a	n/a
282.69	2.52	outcomerating	8	low_cue	high_stim	64.26	Very Strong	64.26	Very Strong	0.63	1.89	task-cognitive_scale.png	n/a	n/a	n/a
308.2	2.0	outcomerating	9	high_cue	low_stim	48.42	Strong	48.42	Strong	0.55	1.45	task-cognitive_scale.png	n/a	n/a	n/a
337.49	2.02	outcomerating	10	high_cue	high_stim	63.95	Strong	63.95	Strong	0.62	1.4	task-cognitive_scale.png	n/a	n/a	n/a
366.69	2.95	outcomerating	11	high_cue	med_stim	70.84	Very Strong	70.84	Very Strong	0.55	2.4	task-cognitive_scale.png	n/a	n/a	n/a
394.8	3.12	outcomerating	12	low_cue	low_stim	41.08	Strong	41.08	Strong	1.02	2.1	task-cognitive_scale.png	n/a	n/a	n/a
