onset	duration	trial_type	trial_index	cue	stimulusintensity	rating_value	rating_glmslabel	rating_value_fillna	rating_glmslabel_fillna	rating_mouseonset	rating_mousedur	stim_file
4.09	0.98	cue	1	high_cue	n/a	n/a	n/a	n/a	n/a	n/a	n/a	h012.png
33.49	0.99	cue	2	low_cue	n/a	n/a	n/a	n/a	n/a	n/a	n/a	l043.png
71.59	0.99	cue	3	high_cue	n/a	n/a	n/a	n/a	n/a	n/a	n/a	h017.png
105.58	0.99	cue	4	high_cue	n/a	n/a	n/a	n/a	n/a	n/a	n/a	h033.png
132.79	0.98	cue	5	high_cue	n/a	n/a	n/a	n/a	n/a	n/a	n/a	h026.png
163.29	0.99	cue	6	high_cue	n/a	n/a	n/a	n/a	n/a	n/a	n/a	h021.png
196.88	0.99	cue	7	low_cue	n/a	n/a	n/a	n/a	n/a	n/a	n/a	l008.png
231.4	0.98	cue	8	low_cue	n/a	n/a	n/a	n/a	n/a	n/a	n/a	l025.png
270.39	0.98	cue	9	high_cue	n/a	n/a	n/a	n/a	n/a	n/a	n/a	h007.png
297.69	0.99	cue	10	low_cue	n/a	n/a	n/a	n/a	n/a	n/a	n/a	l024.png
327.18	0.99	cue	11	low_cue	n/a	n/a	n/a	n/a	n/a	n/a	n/a	l041.png
372.58	0.99	cue	12	low_cue	n/a	n/a	n/a	n/a	n/a	n/a	n/a	l030.png
7.19	2.6	expectrating	1	high_cue	n/a	44.02	Strong	44.02	Strong	1.2	1.4	h012.png
36.59	2.72	expectrating	2	low_cue	n/a	16.55	Moderate	16.55	Moderate	0.57	2.16	l043.png
73.59	1.98	expectrating	3	high_cue	n/a	11.13	Moderate	11.13	Moderate	0.52	1.47	h017.png
108.68	1.87	expectrating	4	high_cue	n/a	19.78	Moderate	19.78	Moderate	0.6	1.27	h033.png
135.89	2.32	expectrating	5	high_cue	n/a	40.28	Strong	40.28	Strong	0.57	1.75	h026.png
165.29	2.47	expectrating	6	high_cue	n/a	28.16	Moderate	28.16	Moderate	1.23	1.23	h021.png
199.28	2.13	expectrating	7	low_cue	n/a	4.59	Weak	4.59	Weak	0.75	1.38	l008.png
234.3	1.83	expectrating	8	low_cue	n/a	16.23	Moderate	16.23	Moderate	0.5	1.33	l025.png
272.19	1.99	expectrating	9	high_cue	n/a	25.31	Moderate	25.31	Moderate	0.62	1.37	h007.png
300.19	1.84	expectrating	10	low_cue	n/a	19.53	Moderate	19.53	Moderate	0.72	1.13	l024.png
329.08	2.32	expectrating	11	low_cue	n/a	10.14	Moderate	10.14	Moderate	0.58	1.73	l041.png
374.6	1.57	expectrating	12	low_cue	n/a	20.12	Moderate	20.12	Moderate	0.58	0.98	l030.png
14.48	7.01	stimulus	1	high_cue	med_stim	n/a	n/a	n/a	n/a	n/a	n/a	jy115t1aeaff_M.mp4
49.48	7.02	stimulus	2	low_cue	low_stim	n/a	n/a	n/a	n/a	n/a	n/a	jy115t1aaunaff_L.mp4
86.48	7.02	stimulus	3	high_cue	low_stim	n/a	n/a	n/a	n/a	n/a	n/a	dr052t1aeunaff_L.mp4
119.88	7.01	stimulus	4	high_cue	high_stim	n/a	n/a	n/a	n/a	n/a	n/a	jh123t1aeaff_H.mp4
143.18	7.0	stimulus	5	high_cue	low_stim	n/a	n/a	n/a	n/a	n/a	n/a	mg066t2aeunaff_L.mp4
176.48	7.02	stimulus	6	high_cue	med_stim	n/a	n/a	n/a	n/a	n/a	n/a	tv095t2afaff_M.mp4
207.88	7.01	stimulus	7	low_cue	high_stim	n/a	n/a	n/a	n/a	n/a	n/a	dr052t1aiaff_H.mp4
242.88	7.01	stimulus	8	low_cue	med_stim	n/a	n/a	n/a	n/a	n/a	n/a	aa048t2afunaff_M.mp4
280.78	7.01	stimulus	9	high_cue	high_stim	n/a	n/a	n/a	n/a	n/a	n/a	jy115t2aaaff_H.mp4
308.28	7.02	stimulus	10	low_cue	med_stim	n/a	n/a	n/a	n/a	n/a	n/a	mg066t2aaunaff_M.mp4
346.58	7.01	stimulus	11	low_cue	low_stim	n/a	n/a	n/a	n/a	n/a	n/a	th108t1aaunaff_L.mp4
386.38	7.01	stimulus	12	low_cue	high_stim	n/a	n/a	n/a	n/a	n/a	n/a	th108t1aeaff_H.mp4
23.7	2.42	outcomerating	1	high_cue	med_stim	20.61	Moderate	20.61	Moderate	0.63	1.78	task-vicarious_scale.png
62.4	1.95	outcomerating	2	low_cue	low_stim	8.1	Weak	8.1	Weak	0.6	1.35	task-vicarious_scale.png
97.1	3.22	outcomerating	3	high_cue	low_stim	28.85	Moderate	28.85	Moderate	0.63	2.58	task-vicarious_scale.png
127.49	3.77	outcomerating	4	high_cue	high_stim	51.38	Strong	51.38	Strong	0.68	3.09	task-vicarious_scale.png
152.4	3.82	outcomerating	5	high_cue	low_stim	28.65	Moderate	28.65	Moderate	0.87	2.95	task-vicarious_scale.png
184.49	2.75	outcomerating	6	high_cue	med_stim	28.63	Moderate	28.63	Moderate	0.7	2.05	task-vicarious_scale.png
224.39	2.97	outcomerating	7	low_cue	high_stim	33.75	Strong	33.75	Strong	0.68	2.29	task-vicarious_scale.png
256.99	2.68	outcomerating	8	low_cue	med_stim	10.18	Moderate	10.18	Moderate	0.63	2.04	task-vicarious_scale.png
292.4	2.63	outcomerating	9	high_cue	high_stim	10.75	Moderate	10.75	Moderate	0.78	1.85	task-vicarious_scale.png
317.99	2.45	outcomerating	10	low_cue	med_stim	6.47	Weak	6.47	Weak	0.7	1.75	task-vicarious_scale.png
367.0		outcomerating	11	low_cue	low_stim			7.64	Weak	1.18	2.25	task-vicarious_scale.png
394.39	2.74	outcomerating	12	low_cue	high_stim	40.78	Strong	40.78	Strong	0.67	2.07	task-vicarious_scale.png
