onset	duration	trial_type	trial_index	cue	stimulusintensity	rating_value	rating_glmslabel	rating_value_fillna	rating_glmslabel_fillna	rating_mouseonset	rating_mousedur	stim_file
11.01	0.98	cue	1	low_cue	n/a	n/a	n/a	n/a	n/a	n/a	n/a	l056.png
51.51	0.98	cue	2	low_cue	n/a	n/a	n/a	n/a	n/a	n/a	n/a	l027.png
83.01	0.98	cue	3	high_cue	n/a	n/a	n/a	n/a	n/a	n/a	n/a	h014.png
117.2	0.99	cue	4	high_cue	n/a	n/a	n/a	n/a	n/a	n/a	n/a	h034.png
150.5	0.99	cue	5	high_cue	n/a	n/a	n/a	n/a	n/a	n/a	n/a	h010.png
185.09	1.0	cue	6	low_cue	n/a	n/a	n/a	n/a	n/a	n/a	n/a	l003.png
213.2	0.99	cue	7	low_cue	n/a	n/a	n/a	n/a	n/a	n/a	n/a	l053.png
244.3	0.99	cue	8	high_cue	n/a	n/a	n/a	n/a	n/a	n/a	n/a	h041.png
270.41	0.98	cue	9	high_cue	n/a	n/a	n/a	n/a	n/a	n/a	n/a	h004.png
304.11	0.98	cue	10	low_cue	n/a	n/a	n/a	n/a	n/a	n/a	n/a	l052.png
338.1	0.99	cue	11	low_cue	n/a	n/a	n/a	n/a	n/a	n/a	n/a	l036.png
376.1	0.99	cue	12	high_cue	n/a	n/a	n/a	n/a	n/a	n/a	n/a	h045.png
14.35	3.01	expectrating	1	low_cue	n/a	1.91	Barely detectable	1.91	Barely detectable	0.03	2.98	l056.png
53.71	3.07	expectrating	2	low_cue	n/a	3.89	Weak	3.89	Weak	0.17	2.9	l027.png
85.82	2.7	expectrating	3	high_cue	n/a	23.35	Moderate	23.35	Moderate	0.37	2.33	h014.png
119.3	3.84	expectrating	4	high_cue	n/a	24.14	Moderate	24.14	Moderate	1.08	2.76	h034.png
152.72		expectrating	5	high_cue	n/a			30.59	Strong	0.87	3.95	h010.png
187.11	3.0	expectrating	6	low_cue	n/a	8.2	Weak	8.2	Weak	1.03	1.97	l003.png
216.51	1.45	expectrating	7	low_cue	n/a	0.24	No sensation	0.24	No sensation	0.17	1.29	l053.png
247.3	2.04	expectrating	8	high_cue	n/a	18.73	Moderate	18.73	Moderate	0.53	1.51	h041.png
272.41	1.62	expectrating	9	high_cue	n/a	63.64	Strong	63.64	Strong	0.57	1.05	h004.png
306.31	1.89	expectrating	10	low_cue	n/a	11.79	Moderate	11.79	Moderate	0.58	1.3	l052.png
340.3	2.09	expectrating	11	low_cue	n/a	7.21	Weak	7.21	Weak	0.55	1.54	l036.png
378.9	2.31	expectrating	12	high_cue	n/a	33.05	Strong	33.05	Strong	0.92	1.39	h045.png
32.49	7.01	stimulus	1	low_cue	med_stim	n/a	n/a	n/a	n/a	n/a	n/a	gf097t1aiaff_M.mp4
62.39	7.01	stimulus	2	low_cue	high_stim	n/a	n/a	n/a	n/a	n/a	n/a	jk103t1aaaff_H.mp4
92.49	7.0	stimulus	3	high_cue	low_stim	n/a	n/a	n/a	n/a	n/a	n/a	mg101t2afunaff_L.mp4
132.79	7.0	stimulus	4	high_cue	med_stim	n/a	n/a	n/a	n/a	n/a	n/a	jk103t2aaunaff_M.mp4
170.9	7.01	stimulus	5	high_cue	high_stim	n/a	n/a	n/a	n/a	n/a	n/a	hs107t1afaff_H.mp4
195.59	7.01	stimulus	6	low_cue	high_stim	n/a	n/a	n/a	n/a	n/a	n/a	mg101t2aeaff_H.mp4
224.99	7.0	stimulus	7	low_cue	low_stim	n/a	n/a	n/a	n/a	n/a	n/a	gf097t2aiunaff_L.mp4
253.99	7.01	stimulus	8	high_cue	high_stim	n/a	n/a	n/a	n/a	n/a	n/a	th108t1aeaff_H.mp4
281.69	7.01	stimulus	9	high_cue	low_stim	n/a	n/a	n/a	n/a	n/a	n/a	hs107t2aeunaff_L.mp4
313.59	7.0	stimulus	10	low_cue	med_stim	n/a	n/a	n/a	n/a	n/a	n/a	nm106t2aaunaff_M.mp4
352.19	7.02	stimulus	11	low_cue	low_stim	n/a	n/a	n/a	n/a	n/a	n/a	jk103t1aaunaff_L.mp4
387.39	7.01	stimulus	12	high_cue	med_stim	n/a	n/a	n/a	n/a	n/a	n/a	th108t2aaunaff_M.mp4
45.31		outcomerating	1	low_cue	med_stim			4.29	Weak	1.28	2.62	task-vicarious_scale.png
75.22	3.11	outcomerating	2	low_cue	high_stim	6.42	Weak	6.42	Weak	0.43	2.67	task-vicarious_scale.png
100.41	3.28	outcomerating	3	high_cue	low_stim	18.43	Moderate	18.43	Moderate	0.42	2.87	task-vicarious_scale.png
145.61	3.52	outcomerating	4	high_cue	med_stim	32.79	Strong	32.79	Strong	0.5	3.02	task-vicarious_scale.png
179.61	2.0	outcomerating	5	high_cue	high_stim	16.11	Moderate	16.11	Moderate	0.38	1.62	task-vicarious_scale.png
204.32	1.89	outcomerating	6	low_cue	high_stim	7.64	Weak	7.64	Weak	0.43	1.46	task-vicarious_scale.png
238.11	2.49	outcomerating	7	low_cue	low_stim	7.34	Weak	7.34	Weak	0.52	1.97	task-vicarious_scale.png
263.01	2.35	outcomerating	8	high_cue	high_stim	40.6	Strong	40.6	Strong	0.37	1.99	task-vicarious_scale.png
298.6	2.01	outcomerating	9	high_cue	low_stim	25.23	Moderate	25.23	Moderate	0.4	1.61	task-vicarious_scale.png
329.82	2.0	outcomerating	10	low_cue	med_stim	32.35	Strong	32.35	Strong	0.58	1.42	task-vicarious_scale.png
363.91	1.77	outcomerating	11	low_cue	low_stim	1.85	Barely detectable	1.85	Barely detectable	0.48	1.28	task-vicarious_scale.png
395.01	2.72	outcomerating	12	high_cue	med_stim	20.56	Moderate	20.56	Moderate	0.58	2.14	task-vicarious_scale.png
