onset	duration	trial_type	trial_index	cue	stimulusintensity	rating_value	rating_glmslabel	rating_value_fillna	rating_glmslabel_fillna	rating_mouseonset	rating_mousedur	stim_file
5.7	0.98	cue	1	low_cue	n/a	n/a	n/a	n/a	n/a	n/a	n/a	l004.png
33.4	0.98	cue	2	low_cue	n/a	n/a	n/a	n/a	n/a	n/a	n/a	l029.png
71.09	0.99	cue	3	low_cue	n/a	n/a	n/a	n/a	n/a	n/a	n/a	l043.png
100.69	0.99	cue	4	high_cue	n/a	n/a	n/a	n/a	n/a	n/a	n/a	h017.png
135.79	0.99	cue	5	high_cue	n/a	n/a	n/a	n/a	n/a	n/a	n/a	h040.png
170.6	0.99	cue	6	high_cue	n/a	n/a	n/a	n/a	n/a	n/a	n/a	h018.png
196.9	0.99	cue	7	high_cue	n/a	n/a	n/a	n/a	n/a	n/a	n/a	h024.png
237.0	0.98	cue	8	low_cue	n/a	n/a	n/a	n/a	n/a	n/a	n/a	l002.png
268.3	0.98	cue	9	high_cue	n/a	n/a	n/a	n/a	n/a	n/a	n/a	h046.png
301.9	0.98	cue	10	low_cue	n/a	n/a	n/a	n/a	n/a	n/a	n/a	l008.png
333.89	1.0	cue	11	high_cue	n/a	n/a	n/a	n/a	n/a	n/a	n/a	h056.png
372.49	0.99	cue	12	low_cue	n/a	n/a	n/a	n/a	n/a	n/a	n/a	l032.png
7.77	2.5	expectrating	1	low_cue	n/a	38.36	Strong	38.36	Strong	0.03	2.47	l004.png
35.7	3.2	expectrating	2	low_cue	n/a	25.74	Moderate	25.74	Moderate	0.05	3.15	l029.png
73.41	2.8	expectrating	3	low_cue	n/a	10.45	Moderate	10.45	Moderate	0.37	2.44	l043.png
103.49	2.13	expectrating	4	high_cue	n/a	38.95	Strong	38.95	Strong	0.42	1.72	h017.png
137.5	2.52	expectrating	5	high_cue	n/a	16.72	Moderate	16.72	Moderate	0.22	2.3	h040.png
172.42	1.9	expectrating	6	high_cue	n/a	26.98	Moderate	26.98	Moderate	0.38	1.52	h018.png
199.9	2.34	expectrating	7	high_cue	n/a	42.07	Strong	42.07	Strong	0.45	1.89	h024.png
239.7		expectrating	8	low_cue	n/a			1.18	Barely detectable	0.18	3.73	l002.png
271.3	3.4	expectrating	9	high_cue	n/a	43.37	Strong	43.37	Strong	0.05	3.35	h046.png
304.21	2.03	expectrating	10	low_cue	n/a	9.24	Weak	9.24	Weak	0.13	1.9	l008.png
336.91	1.99	expectrating	11	high_cue	n/a	16.98	Moderate	16.98	Moderate	0.15	1.84	h056.png
375.5	3.22	expectrating	12	low_cue	n/a	7.61	Weak	7.61	Weak	0.05	3.17	l032.png
15.69	7.01	stimulus	1	low_cue	med_stim	n/a	n/a	n/a	n/a	n/a	n/a	ll042t1afunaff_M.mp4
46.49	7.01	stimulus	2	low_cue	low_stim	n/a	n/a	n/a	n/a	n/a	n/a	mg066t2aeunaff_L.mp4
84.19	7.01	stimulus	3	low_cue	high_stim	n/a	n/a	n/a	n/a	n/a	n/a	gf097t2aaunaff_H.mp4
114.79	7.01	stimulus	4	high_cue	low_stim	n/a	n/a	n/a	n/a	n/a	n/a	aa048t2aaunaff_L.mp4
149.79	7.01	stimulus	5	high_cue	med_stim	n/a	n/a	n/a	n/a	n/a	n/a	th108t2aaunaff_M.mp4
180.99	7.0	stimulus	6	high_cue	high_stim	n/a	n/a	n/a	n/a	n/a	n/a	jl047t1aiaff_H.mp4
212.19	7.0	stimulus	7	high_cue	low_stim	n/a	n/a	n/a	n/a	n/a	n/a	ll042t1aaunaff_L.mp4
251.29	7.01	stimulus	8	low_cue	high_stim	n/a	n/a	n/a	n/a	n/a	n/a	aa048t2aeaff_H.mp4
279.19	7.01	stimulus	9	high_cue	high_stim	n/a	n/a	n/a	n/a	n/a	n/a	ll042t1aiaff_H.mp4
316.49	7.01	stimulus	10	low_cue	med_stim	n/a	n/a	n/a	n/a	n/a	n/a	jy115t1aeaff_M.mp4
349.19	7.01	stimulus	11	high_cue	med_stim	n/a	n/a	n/a	n/a	n/a	n/a	gf097t1aiaff_M.mp4
383.39	7.02	stimulus	12	low_cue	low_stim	n/a	n/a	n/a	n/a	n/a	n/a	jy115t1aaunaff_L.mp4
27.95	3.57	outcomerating	1	low_cue	med_stim	12.26	Moderate	12.26	Moderate	0.68	2.89	task-vicarious_scale.png
55.42	3.76	outcomerating	2	low_cue	low_stim	7.15	Weak	7.15	Weak	0.28	3.48	task-vicarious_scale.png
93.32	3.85	outcomerating	3	low_cue	high_stim	12.53	Moderate	12.53	Moderate	0.45	3.4	task-vicarious_scale.png
124.72	3.25	outcomerating	4	high_cue	low_stim	12.98	Moderate	12.98	Moderate	0.35	2.9	task-vicarious_scale.png
159.71		outcomerating	5	high_cue	med_stim			20.99	Moderate	0.38	3.08	task-vicarious_scale.png
190.94	3.07	outcomerating	6	high_cue	high_stim	43.36	Strong	43.36	Strong	0.63	2.44	task-vicarious_scale.png
231.01	3.04	outcomerating	7	high_cue	low_stim	21.5	Moderate	21.5	Moderate	0.5	2.54	task-vicarious_scale.png
259.31	2.05	outcomerating	8	low_cue	high_stim	15.79	Moderate	15.79	Moderate	0.45	1.6	task-vicarious_scale.png
295.73	3.25	outcomerating	9	high_cue	high_stim	50.19	Strong	50.19	Strong	0.67	2.59	task-vicarious_scale.png
327.7	2.51	outcomerating	10	low_cue	med_stim	13.87	Moderate	13.87	Moderate	1.08	1.43	task-vicarious_scale.png
361.6	3.17	outcomerating	11	high_cue	med_stim	3.68	Weak	3.68	Weak	0.5	2.67	task-vicarious_scale.png
394.71	2.9	outcomerating	12	low_cue	low_stim	3.45	Weak	3.45	Weak	0.42	2.49	task-vicarious_scale.png
