onset	duration	trial_type	trial_index	cue	stimulusintensity	rating_value	rating_glmslabel	rating_value_fillna	rating_glmslabel_fillna	rating_mouseonset	rating_mousedur	stim_file
5.68	0.99	cue	1	low_cue	n/a	n/a	n/a	n/a	n/a	n/a	n/a	l015.png
34.99	0.98	cue	2	high_cue	n/a	n/a	n/a	n/a	n/a	n/a	n/a	h026.png
62.69	0.99	cue	3	low_cue	n/a	n/a	n/a	n/a	n/a	n/a	n/a	l026.png
96.08	0.99	cue	4	high_cue	n/a	n/a	n/a	n/a	n/a	n/a	n/a	h025.png
131.6	0.98	cue	5	low_cue	n/a	n/a	n/a	n/a	n/a	n/a	n/a	l043.png
163.39	0.98	cue	6	low_cue	n/a	n/a	n/a	n/a	n/a	n/a	n/a	l017.png
193.39	0.99	cue	7	high_cue	n/a	n/a	n/a	n/a	n/a	n/a	n/a	h003.png
234.38	0.99	cue	8	low_cue	n/a	n/a	n/a	n/a	n/a	n/a	n/a	l002.png
259.09	0.98	cue	9	low_cue	n/a	n/a	n/a	n/a	n/a	n/a	n/a	l053.png
307.8	0.98	cue	10	high_cue	n/a	n/a	n/a	n/a	n/a	n/a	n/a	h014.png
340.69	0.98	cue	11	high_cue	n/a	n/a	n/a	n/a	n/a	n/a	n/a	h055.png
371.5	0.97	cue	12	high_cue	n/a	n/a	n/a	n/a	n/a	n/a	n/a	h038.png
9.0		expectrating	1	low_cue	n/a			2.3	Barely detectable	0.05	3.2	l015.png
37.69	2.32	expectrating	2	high_cue	n/a	55.29	Strong	55.29	Strong	1.32	1.0	h026.png
65.89	1.64	expectrating	3	low_cue	n/a	0.0		0.0		0.7	0.94	l026.png
98.38		expectrating	4	high_cue	n/a			64.98	Very Strong	0.68	3.8	h025.png
134.3	2.47	expectrating	5	low_cue	n/a	1.38	Barely detectable	1.38	Barely detectable	0.45	2.02	l043.png
165.69	2.04	expectrating	6	low_cue	n/a	1.89	Barely detectable	1.89	Barely detectable	0.9	1.14	l017.png
194.99	2.32	expectrating	7	high_cue	n/a	39.63	Strong	39.63	Strong	0.9	1.42	h003.png
235.99	2.58	expectrating	8	low_cue	n/a	0.92	No sensation	0.92	No sensation	1.43	1.15	l002.png
260.99	2.4	expectrating	9	low_cue	n/a	3.45	Weak	3.45	Weak	0.62	1.79	l053.png
311.0	2.58	expectrating	10	high_cue	n/a	97.1	Very Strong	97.1	Very Strong	0.65	1.93	h014.png
342.59	2.74	expectrating	11	high_cue	n/a	45.82	Strong	45.82	Strong	1.53	1.21	h055.png
374.79	2.1	expectrating	12	high_cue	n/a	28.0	Moderate	28.0	Moderate	0.57	1.53	h038.png
19.38	7.01	stimulus	1	low_cue	med_stim	n/a	n/a	n/a	n/a	n/a	n/a	aa048t2afunaff_M.mp4
44.68	7.0	stimulus	2	high_cue	low_stim	n/a	n/a	n/a	n/a	n/a	n/a	mg066t2aeunaff_L.mp4
78.38	7.02	stimulus	3	low_cue	high_stim	n/a	n/a	n/a	n/a	n/a	n/a	ib109t1aiaff_H.mp4
106.58	7.01	stimulus	4	high_cue	med_stim	n/a	n/a	n/a	n/a	n/a	n/a	jk103t2aaunaff_M.mp4
142.98	7.0	stimulus	5	low_cue	med_stim	n/a	n/a	n/a	n/a	n/a	n/a	mg066t2aaunaff_M.mp4
180.78	7.01	stimulus	6	low_cue	high_stim	n/a	n/a	n/a	n/a	n/a	n/a	aa048t2aeaff_H.mp4
203.18	7.01	stimulus	7	high_cue	high_stim	n/a	n/a	n/a	n/a	n/a	n/a	jl047t1aiaff_H.mp4
243.88	7.01	stimulus	8	low_cue	low_stim	n/a	n/a	n/a	n/a	n/a	n/a	jk103t1aaunaff_L.mp4
276.08	7.01	stimulus	9	low_cue	low_stim	n/a	n/a	n/a	n/a	n/a	n/a	ib109t1aiunaff_L.mp4
318.88	7.01	stimulus	10	high_cue	low_stim	n/a	n/a	n/a	n/a	n/a	n/a	jl047t1aaunaff_L.mp4
355.28	7.0	stimulus	11	high_cue	med_stim	n/a	n/a	n/a	n/a	n/a	n/a	jy115t1aeaff_M.mp4
387.28	7.02	stimulus	12	high_cue	high_stim	n/a	n/a	n/a	n/a	n/a	n/a	tv095t1afaff_H.mp4
28.09	3.94	outcomerating	1	low_cue	med_stim	0.69	No sensation	0.69	No sensation	0.45	3.49	task-vicarious_scale.png
58.2	3.68	outcomerating	2	high_cue	low_stim	35.99	Strong	35.99	Strong	0.5	3.18	task-vicarious_scale.png
91.6	2.83	outcomerating	3	low_cue	high_stim	46.82	Strong	46.82	Strong	0.5	2.33	task-vicarious_scale.png
114.79	3.57	outcomerating	4	high_cue	med_stim	28.74	Moderate	28.74	Moderate	0.45	3.12	task-vicarious_scale.png
156.21	1.78	outcomerating	5	low_cue	med_stim	2.09	Barely detectable	2.09	Barely detectable	0.6	1.18	task-vicarious_scale.png
188.6		outcomerating	6	low_cue	high_stim			16.89	Moderate	1.08	2.68	task-vicarious_scale.png
227.9	3.62	outcomerating	7	high_cue	high_stim	47.6	Strong	47.6	Strong	0.7	2.92	task-vicarious_scale.png
252.89	2.12	outcomerating	8	low_cue	low_stim	1.15	Barely detectable	1.15	Barely detectable	0.48	1.64	task-vicarious_scale.png
290.99	2.71	outcomerating	9	low_cue	low_stim	17.49	Moderate	17.49	Moderate	0.67	2.04	task-vicarious_scale.png
327.6	2.12	outcomerating	10	high_cue	low_stim	46.97	Strong	46.97	Strong	0.43	1.68	task-vicarious_scale.png
363.8	3.33	outcomerating	11	high_cue	med_stim	52.02	Strong	52.02	Strong	0.4	2.93	task-vicarious_scale.png
395.09	1.82	outcomerating	12	high_cue	high_stim	92.6	Very Strong	92.6	Very Strong	0.37	1.45	task-vicarious_scale.png
