onset	duration	trial_type	trial_index	cue	stimulusintensity	rating_value	rating_glmslabel	rating_value_fillna	rating_glmslabel_fillna	rating_mouseonset	rating_mousedur	stim_file	onset_ttl1	onset_ttl2	onset_ttl3	onset_ttl4	stimulus_delivery_success
11.29	1.0	cue	1	high_cue	n/a	n/a	n/a	n/a	n/a	n/a	n/a	h037.png	n/a	n/a	n/a	n/a	n/a
44.29	1.0	cue	2	low_cue	n/a	n/a	n/a	n/a	n/a	n/a	n/a	l044.png	n/a	n/a	n/a	n/a	n/a
80.7	1.0	cue	3	high_cue	n/a	n/a	n/a	n/a	n/a	n/a	n/a	h049.png	n/a	n/a	n/a	n/a	n/a
105.59	1.0	cue	4	low_cue	n/a	n/a	n/a	n/a	n/a	n/a	n/a	l035.png	n/a	n/a	n/a	n/a	n/a
133.79	1.0	cue	5	high_cue	n/a	n/a	n/a	n/a	n/a	n/a	n/a	h009.png	n/a	n/a	n/a	n/a	n/a
169.5	1.0	cue	6	high_cue	n/a	n/a	n/a	n/a	n/a	n/a	n/a	h054.png	n/a	n/a	n/a	n/a	n/a
204.4	1.0	cue	7	low_cue	n/a	n/a	n/a	n/a	n/a	n/a	n/a	l022.png	n/a	n/a	n/a	n/a	n/a
234.29	1.0	cue	8	high_cue	n/a	n/a	n/a	n/a	n/a	n/a	n/a	h016.png	n/a	n/a	n/a	n/a	n/a
266.69	1.0	cue	9	low_cue	n/a	n/a	n/a	n/a	n/a	n/a	n/a	l056.png	n/a	n/a	n/a	n/a	n/a
294.8	1.0	cue	10	high_cue	n/a	n/a	n/a	n/a	n/a	n/a	n/a	h004.png	n/a	n/a	n/a	n/a	n/a
327.09	1.0	cue	11	low_cue	n/a	n/a	n/a	n/a	n/a	n/a	n/a	l047.png	n/a	n/a	n/a	n/a	n/a
366.49	1.0	cue	12	low_cue	n/a	n/a	n/a	n/a	n/a	n/a	n/a	l015.png	n/a	n/a	n/a	n/a	n/a
14.21	1.57	expectrating	1	high_cue	n/a	43.22	Strong	43.22	Strong	0.05	1.52	h037.png	n/a	n/a	n/a	n/a	n/a
47.21	3.15	expectrating	2	low_cue	n/a	51.45	Strong	51.45	Strong	0.73	2.42	l044.png	n/a	n/a	n/a	n/a	n/a
83.7	3.0	expectrating	3	high_cue	n/a	62.2	Strong	62.2	Strong	0.35	2.65	h049.png	n/a	n/a	n/a	n/a	n/a
107.39	2.96	expectrating	4	low_cue	n/a	77.87	Very Strong	77.87	Very Strong	0.98	1.97	l035.png	n/a	n/a	n/a	n/a	n/a
135.61	2.62	expectrating	5	high_cue	n/a	74.12	Very Strong	74.12	Very Strong	0.27	2.35	h009.png	n/a	n/a	n/a	n/a	n/a
172.4	1.55	expectrating	6	high_cue	n/a	73.45	Very Strong	73.45	Very Strong	0.18	1.37	h054.png	n/a	n/a	n/a	n/a	n/a
207.3	1.34	expectrating	7	low_cue	n/a	75.57	Very Strong	75.57	Very Strong	0.3	1.04	l022.png	n/a	n/a	n/a	n/a	n/a
236.19	2.03	expectrating	8	high_cue	n/a	83.33	Very Strong	83.33	Very Strong	0.37	1.66	h016.png	n/a	n/a	n/a	n/a	n/a
268.5	1.95	expectrating	9	low_cue	n/a	65.59	Very Strong	65.59	Very Strong	0.32	1.63	l056.png	n/a	n/a	n/a	n/a	n/a
297.3	1.94	expectrating	10	high_cue	n/a	74.79	Very Strong	74.79	Very Strong	0.48	1.45	h004.png	n/a	n/a	n/a	n/a	n/a
329.99	1.06	expectrating	11	low_cue	n/a	69.39	Very Strong	69.39	Very Strong	0.07	0.99	l047.png	n/a	n/a	n/a	n/a	n/a
369.39	2.71	expectrating	12	low_cue	n/a	83.51	Very Strong	83.51	Very Strong	0.35	2.36	l015.png	n/a	n/a	n/a	n/a	n/a
19.33	32.15	stimulus	1	high_cue	high_stim	n/a	n/a	n/a	n/a	n/a	n/a	50c	19.33	23.34	28.34	32.15	success
59.44	72.26	stimulus	2	low_cue	high_stim	n/a	n/a	n/a	n/a	n/a	n/a	50c	59.44	63.45	68.45	72.26	success
90.02	102.84	stimulus	3	high_cue	high_stim	n/a	n/a	n/a	n/a	n/a	n/a	50c	90.02	94.03	99.03	102.84	success
112.53	124.89	stimulus	4	low_cue	med_stim	n/a	n/a	n/a	n/a	n/a	n/a	49c	112.53	116.29	121.29	124.9	success
145.96	157.86	stimulus	5	high_cue	low_stim	n/a	n/a	n/a	n/a	n/a	n/a	48c	145.96	149.46	154.46	157.86	success
184.92	197.28	stimulus	6	high_cue	med_stim	n/a	n/a	n/a	n/a	n/a	n/a	49c	184.92	188.68	193.68	197.29	success
216.44	229.26	stimulus	7	low_cue	high_stim	n/a	n/a	n/a	n/a	n/a	n/a	50c	216.44	220.45	225.45	229.26	success
242.94	254.84	stimulus	8	high_cue	low_stim	n/a	n/a	n/a	n/a	n/a	n/a	48c	242.94	246.44	251.44	254.84	success
278.82	290.73	stimulus	9	low_cue	low_stim	n/a	n/a	n/a	n/a	n/a	n/a	48c	278.82	282.32	287.32	290.72	success
305.94	318.3	stimulus	10	high_cue	med_stim	n/a	n/a	n/a	n/a	n/a	n/a	49c	305.94	309.7	314.7	318.31	success
340.93	353.29	stimulus	11	low_cue	med_stim	n/a	n/a	n/a	n/a	n/a	n/a	49c	340.93	344.69	349.69	353.3	success
374.21	386.12	stimulus	12	low_cue	low_stim	n/a	n/a	n/a	n/a	n/a	n/a	48c	374.21	377.71	382.71	386.11	success
32.7	1.77	outcomerating	1	high_cue	high_stim	75.96	Very Strong	75.96	Very Strong	0.43	1.33	task-pain_scale.png	n/a	n/a	n/a	n/a	success
70.7	1.57	outcomerating	2	low_cue	high_stim	72.88	Very Strong	72.88	Very Strong	0.42	1.15	task-pain_scale.png	n/a	n/a	n/a	n/a	success
100.59	2.06	outcomerating	3	high_cue	high_stim	83.28	Very Strong	83.28	Very Strong	0.88	1.18	task-pain_scale.png	n/a	n/a	n/a	n/a	success
126.1	2.85	outcomerating	4	low_cue	med_stim	68.98	Very Strong	68.98	Very Strong	0.32	2.53	task-pain_scale.png	n/a	n/a	n/a	n/a	success
159.5	2.44	outcomerating	5	high_cue	low_stim	58.6	Strong	58.6	Strong	0.58	1.85	task-pain_scale.png	n/a	n/a	n/a	n/a	success
196.69	3.64	outcomerating	6	high_cue	med_stim	80.19	Very Strong	80.19	Very Strong	0.5	3.14	task-pain_scale.png	n/a	n/a	n/a	n/a	success
228.41	2.8	outcomerating	7	low_cue	high_stim	95.92	Very Strong	95.92	Very Strong	0.47	2.33	task-pain_scale.png	n/a	n/a	n/a	n/a	success
255.7	2.03	outcomerating	8	high_cue	low_stim	73.39	Very Strong	73.39	Very Strong	0.38	1.65	task-pain_scale.png	n/a	n/a	n/a	n/a	success
289.0	3.01	outcomerating	9	low_cue	low_stim	59.51	Strong	59.51	Strong	1.07	1.94	task-pain_scale.png	n/a	n/a	n/a	n/a	success
317.21	1.8	outcomerating	10	high_cue	med_stim	90.46	Very Strong	90.46	Very Strong	0.45	1.35	task-pain_scale.png	n/a	n/a	n/a	n/a	success
361.51	1.75	outcomerating	11	low_cue	med_stim	86.51	Very Strong	86.51	Very Strong	0.62	1.13	task-pain_scale.png	n/a	n/a	n/a	n/a	success
394.8	3.33	outcomerating	12	low_cue	low_stim	65.9	Very Strong	65.9	Very Strong	0.43	2.9	task-pain_scale.png	n/a	n/a	n/a	n/a	success
