onset	duration	trial_type	trial_index	cue	stimulusintensity	rating_value	rating_glmslabel	rating_value_fillna	rating_glmslabel_fillna	rating_mouseonset	rating_mousedur	stim_file
11.0	0.99	cue	1	low_cue	n/a	n/a	n/a	n/a	n/a	n/a	n/a	l056.png
51.5	0.99	cue	2	low_cue	n/a	n/a	n/a	n/a	n/a	n/a	n/a	l027.png
82.99	1.0	cue	3	high_cue	n/a	n/a	n/a	n/a	n/a	n/a	n/a	h014.png
117.2	0.98	cue	4	high_cue	n/a	n/a	n/a	n/a	n/a	n/a	n/a	h034.png
150.5	0.99	cue	5	high_cue	n/a	n/a	n/a	n/a	n/a	n/a	n/a	h010.png
185.1	0.99	cue	6	low_cue	n/a	n/a	n/a	n/a	n/a	n/a	n/a	l003.png
213.21	0.98	cue	7	low_cue	n/a	n/a	n/a	n/a	n/a	n/a	n/a	l053.png
244.3	0.99	cue	8	high_cue	n/a	n/a	n/a	n/a	n/a	n/a	n/a	h041.png
270.39	0.99	cue	9	high_cue	n/a	n/a	n/a	n/a	n/a	n/a	n/a	h004.png
304.09	1.0	cue	10	low_cue	n/a	n/a	n/a	n/a	n/a	n/a	n/a	l052.png
338.1	0.98	cue	11	low_cue	n/a	n/a	n/a	n/a	n/a	n/a	n/a	l036.png
376.1	0.99	cue	12	high_cue	n/a	n/a	n/a	n/a	n/a	n/a	n/a	h045.png
14.31	1.9	expectrating	1	low_cue	n/a	9.24	Weak	9.24	Weak	0.5	1.4	l056.png
53.7	3.32	expectrating	2	low_cue	n/a	6.49	Weak	6.49	Weak	0.38	2.93	l027.png
85.81	2.7	expectrating	3	high_cue	n/a	118.74	Strongest sensation of any kind	118.74	Strongest sensation of any kind	0.37	2.33	h014.png
119.3	3.37	expectrating	4	high_cue	n/a	96.67	Very Strong	96.67	Very Strong	0.18	3.19	h034.png
152.7		expectrating	5	high_cue	n/a			88.49	Very Strong	1.97	3.87	h010.png
187.1	2.9	expectrating	6	low_cue	n/a	3.45	Weak	3.45	Weak	0.42	2.48	l003.png
216.51	3.03	expectrating	7	low_cue	n/a	5.76	Weak	5.76	Weak	0.27	2.77	l053.png
247.3	2.74	expectrating	8	high_cue	n/a	33.24	Strong	33.24	Strong	0.62	2.12	h041.png
272.39		expectrating	9	high_cue	n/a			78.92	Very Strong	1.0	3.87	h004.png
306.31	2.98	expectrating	10	low_cue	n/a	14.87	Moderate	14.87	Moderate	0.18	2.8	l052.png
340.3		expectrating	11	low_cue	n/a			8.29	Weak	0.12	3.92	l036.png
378.9	3.67	expectrating	12	high_cue	n/a	99.73	Strongest sensation of any kind	99.73	Strongest sensation of any kind	1.32	2.36	h045.png
32.49	7.0	stimulus	1	low_cue	med_stim	n/a	n/a	n/a	n/a	n/a	n/a	gf097t1aiaff_M.mp4
62.39	7.01	stimulus	2	low_cue	high_stim	n/a	n/a	n/a	n/a	n/a	n/a	jk103t1aaaff_H.mp4
92.49	7.01	stimulus	3	high_cue	low_stim	n/a	n/a	n/a	n/a	n/a	n/a	mg101t2afunaff_L.mp4
132.79	7.01	stimulus	4	high_cue	med_stim	n/a	n/a	n/a	n/a	n/a	n/a	jk103t2aaunaff_M.mp4
170.89	7.0	stimulus	5	high_cue	high_stim	n/a	n/a	n/a	n/a	n/a	n/a	hs107t1afaff_H.mp4
195.59	7.01	stimulus	6	low_cue	high_stim	n/a	n/a	n/a	n/a	n/a	n/a	mg101t2aeaff_H.mp4
224.99	7.01	stimulus	7	low_cue	low_stim	n/a	n/a	n/a	n/a	n/a	n/a	gf097t2aiunaff_L.mp4
253.99	7.0	stimulus	8	high_cue	high_stim	n/a	n/a	n/a	n/a	n/a	n/a	th108t1aeaff_H.mp4
281.69	7.01	stimulus	9	high_cue	low_stim	n/a	n/a	n/a	n/a	n/a	n/a	hs107t2aeunaff_L.mp4
313.59	7.01	stimulus	10	low_cue	med_stim	n/a	n/a	n/a	n/a	n/a	n/a	nm106t2aaunaff_M.mp4
352.19	7.01	stimulus	11	low_cue	low_stim	n/a	n/a	n/a	n/a	n/a	n/a	jk103t1aaunaff_L.mp4
387.39	7.0	stimulus	12	high_cue	med_stim	n/a	n/a	n/a	n/a	n/a	n/a	th108t2aaunaff_M.mp4
45.31	3.23	outcomerating	1	low_cue	med_stim	6.67	Weak	6.67	Weak	0.58	2.65	task-vicarious_scale.png
75.2		outcomerating	2	low_cue	high_stim			11.58	Moderate	0.83	2.37	task-vicarious_scale.png
100.41	3.03	outcomerating	3	high_cue	low_stim	2.99	Barely detectable	2.99	Barely detectable	0.47	2.57	task-vicarious_scale.png
145.61	3.63	outcomerating	4	high_cue	med_stim	4.63	Weak	4.63	Weak	0.92	2.72	task-vicarious_scale.png
179.61		outcomerating	5	high_cue	high_stim			27.49	Moderate	0.2	3.77	task-vicarious_scale.png
204.3	2.69	outcomerating	6	low_cue	high_stim	33.56	Strong	33.56	Strong	0.5	2.19	task-vicarious_scale.png
238.12		outcomerating	7	low_cue	low_stim			5.78	Weak	0.48	2.6	task-vicarious_scale.png
263.01	3.74	outcomerating	8	high_cue	high_stim	18.21	Moderate	18.21	Moderate	0.6	3.14	task-vicarious_scale.png
298.6	3.25	outcomerating	9	high_cue	low_stim	51.84	Strong	51.84	Strong	0.55	2.7	task-vicarious_scale.png
329.8	3.79	outcomerating	10	low_cue	med_stim	1.61	Barely detectable	1.61	Barely detectable	0.62	3.18	task-vicarious_scale.png
363.91	3.93	outcomerating	11	low_cue	low_stim	1.84	Barely detectable	1.84	Barely detectable	0.62	3.32	task-vicarious_scale.png
395.01		outcomerating	12	high_cue	med_stim			2.54	Barely detectable	1.32	2.58	task-vicarious_scale.png
