onset	duration	trial_type	trial_index	cue	stimulusintensity	rating_value	rating_glmslabel	rating_value_fillna	rating_glmslabel_fillna	rating_mouseonset	rating_mousedur	stim_file	correct_response	participant_response	response_accuracy
4.69	0.99	cue	1	high_cue	n/a	n/a	n/a	n/a	n/a	n/a	n/a	h049.png	n/a	n/a	n/a
37.2	0.98	cue	2	low_cue	n/a	n/a	n/a	n/a	n/a	n/a	n/a	l004.png	n/a	n/a	n/a
62.19	0.99	cue	3	low_cue	n/a	n/a	n/a	n/a	n/a	n/a	n/a	l035.png	n/a	n/a	n/a
91.79	0.99	cue	4	low_cue	n/a	n/a	n/a	n/a	n/a	n/a	n/a	l001.png	n/a	n/a	n/a
120.1	0.98	cue	5	high_cue	n/a	n/a	n/a	n/a	n/a	n/a	n/a	h053.png	n/a	n/a	n/a
149.29	0.99	cue	6	high_cue	n/a	n/a	n/a	n/a	n/a	n/a	n/a	h002.png	n/a	n/a	n/a
178.59	0.99	cue	7	high_cue	n/a	n/a	n/a	n/a	n/a	n/a	n/a	h020.png	n/a	n/a	n/a
218.98	1.0	cue	8	high_cue	n/a	n/a	n/a	n/a	n/a	n/a	n/a	h034.png	n/a	n/a	n/a
245.49	0.99	cue	9	low_cue	n/a	n/a	n/a	n/a	n/a	n/a	n/a	l003.png	n/a	n/a	n/a
276.39	0.99	cue	10	low_cue	n/a	n/a	n/a	n/a	n/a	n/a	n/a	l056.png	n/a	n/a	n/a
322.99	0.99	cue	11	low_cue	n/a	n/a	n/a	n/a	n/a	n/a	n/a	l006.png	n/a	n/a	n/a
362.29	0.99	cue	12	high_cue	n/a	n/a	n/a	n/a	n/a	n/a	n/a	h019.png	n/a	n/a	n/a
7.11	2.76	expectrating	1	high_cue	n/a	63.86	Strong	63.86	Strong	0.05	2.71	h049.png	n/a	n/a	n/a
39.0	3.28	expectrating	2	low_cue	n/a	10.9	Moderate	10.9	Moderate	1.1	2.18	l004.png	n/a	n/a	n/a
64.29	2.93	expectrating	3	low_cue	n/a	5.78	Weak	5.78	Weak	1.18	1.75	l035.png	n/a	n/a	n/a
94.9	2.47	expectrating	4	low_cue	n/a	3.68	Weak	3.68	Weak	0.38	2.09	l001.png	n/a	n/a	n/a
122.5	3.07	expectrating	5	high_cue	n/a	30.88	Strong	30.88	Strong	1.02	2.05	h053.png	n/a	n/a	n/a
151.39	3.7	expectrating	6	high_cue	n/a	41.1	Strong	41.1	Strong	1.18	2.52	h002.png	n/a	n/a	n/a
180.7	3.85	expectrating	7	high_cue	n/a	31.64	Strong	31.64	Strong	0.05	3.8	h020.png	n/a	n/a	n/a
221.1	3.47	expectrating	8	high_cue	n/a	32.86	Strong	32.86	Strong	0.05	3.42	h034.png	n/a	n/a	n/a
248.6	3.75	expectrating	9	low_cue	n/a	1.39	Barely detectable	1.39	Barely detectable	0.05	3.7	l003.png	n/a	n/a	n/a
279.49	3.05	expectrating	10	low_cue	n/a	4.88	Weak	4.88	Weak	0.05	3.0	l056.png	n/a	n/a	n/a
325.39		expectrating	11	low_cue	n/a			2.54	Barely detectable	0.05	2.7	l006.png	n/a	n/a	n/a
365.39	2.47	expectrating	12	high_cue	n/a	39.63	Strong	39.63	Strong	0.05	2.42	h019.png	n/a	n/a	n/a
21.89	7.0	stimulus	1	high_cue	low_stim	n/a	n/a	n/a	n/a	n/a	n/a	27_50_R.jpg	diff	diff	True
46.1	6.99	stimulus	2	low_cue	low_stim	n/a	n/a	n/a	n/a	n/a	n/a	18_50.jpg	same	same	True
77.1	7.0	stimulus	3	low_cue	med_stim	n/a	n/a	n/a	n/a	n/a	n/a	42_100_R.jpg	diff	diff	True
106.09	7.0	stimulus	4	low_cue	high_stim	n/a	n/a	n/a	n/a	n/a	n/a	42_150_R.jpg	diff	diff	True
134.1	6.99	stimulus	5	high_cue	med_stim	n/a	n/a	n/a	n/a	n/a	n/a	11_100_R.jpg	diff	diff	True
162.9	7.0	stimulus	6	high_cue	high_stim	n/a	n/a	n/a	n/a	n/a	n/a	35_150.jpg	same	same	True
189.29	7.0	stimulus	7	high_cue	low_stim	n/a	n/a	n/a	n/a	n/a	n/a	29_50.jpg	same	same	True
227.99	7.0	stimulus	8	high_cue	high_stim	n/a	n/a	n/a	n/a	n/a	n/a	10_150_R.jpg	diff	diff	True
259.2	7.0	stimulus	9	low_cue	low_stim	n/a	n/a	n/a	n/a	n/a	n/a	42_50_R.jpg	diff	diff	True
290.79	7.0	stimulus	10	low_cue	med_stim	n/a	n/a	n/a	n/a	n/a	n/a	11_100.jpg	same	same	True
332.79	7.0	stimulus	11	low_cue	high_stim	n/a	n/a	n/a	n/a	n/a	n/a	5_150_R.jpg	diff	diff	True
377.49	7.0	stimulus	12	high_cue	med_stim	n/a	n/a	n/a	n/a	n/a	n/a	27_100_R.jpg	diff	diff	True
31.3		outcomerating	1	high_cue	low_stim			12.08	Moderate	1.52	2.42	task-cognitive_scale.png	n/a	n/a	n/a
57.29	3.39	outcomerating	2	low_cue	low_stim	3.23	Weak	3.23	Weak	0.38	3.0	task-cognitive_scale.png	n/a	n/a	n/a
86.7	2.33	outcomerating	3	low_cue	med_stim	0.0		0.0		0.05	2.28	task-cognitive_scale.png	n/a	n/a	n/a
115.4	3.07	outcomerating	4	low_cue	high_stim	43.86	Strong	43.86	Strong	0.62	2.45	task-cognitive_scale.png	n/a	n/a	n/a
144.69	2.67	outcomerating	5	high_cue	med_stim	23.17	Moderate	23.17	Moderate	1.22	1.45	task-cognitive_scale.png	n/a	n/a	n/a
172.6	2.72	outcomerating	6	high_cue	high_stim	44.19	Strong	44.19	Strong	0.48	2.23	task-cognitive_scale.png	n/a	n/a	n/a
207.2		outcomerating	7	high_cue	low_stim			20.91	Moderate	1.22	2.72	task-cognitive_scale.png	n/a	n/a	n/a
240.59		outcomerating	8	high_cue	high_stim			11.08	Moderate	1.28	2.3	task-cognitive_scale.png	n/a	n/a	n/a
270.5	3.47	outcomerating	9	low_cue	low_stim	24.71	Moderate	24.71	Moderate	1.02	2.45	task-cognitive_scale.png	n/a	n/a	n/a
302.0	2.97	outcomerating	10	low_cue	med_stim	24.92	Moderate	24.92	Moderate	0.42	2.55	task-cognitive_scale.png	n/a	n/a	n/a
341.2	2.72	outcomerating	11	low_cue	high_stim	17.34	Moderate	17.34	Moderate	0.9	1.82	task-cognitive_scale.png	n/a	n/a	n/a
394.1	3.13	outcomerating	12	high_cue	med_stim	23.91	Moderate	23.91	Moderate	0.85	2.28	task-cognitive_scale.png	n/a	n/a	n/a
