onset	duration	trial_type	trial_index	cue	stimulusintensity	rating_value	rating_glmslabel	rating_value_fillna	rating_glmslabel_fillna	rating_mouseonset	rating_mousedur	stim_file	correct_response	participant_response	response_accuracy
11.01	0.99	cue	1	low_cue	n/a	n/a	n/a	n/a	n/a	n/a	n/a	l053.png	n/a	n/a	n/a
51.51	0.99	cue	2	low_cue	n/a	n/a	n/a	n/a	n/a	n/a	n/a	l037.png	n/a	n/a	n/a
83.0	0.99	cue	3	high_cue	n/a	n/a	n/a	n/a	n/a	n/a	n/a	h015.png	n/a	n/a	n/a
117.22	0.98	cue	4	high_cue	n/a	n/a	n/a	n/a	n/a	n/a	n/a	h050.png	n/a	n/a	n/a
150.51	0.99	cue	5	high_cue	n/a	n/a	n/a	n/a	n/a	n/a	n/a	h009.png	n/a	n/a	n/a
185.11	0.99	cue	6	low_cue	n/a	n/a	n/a	n/a	n/a	n/a	n/a	l012.png	n/a	n/a	n/a
213.2	1.0	cue	7	low_cue	n/a	n/a	n/a	n/a	n/a	n/a	n/a	l046.png	n/a	n/a	n/a
244.31	0.98	cue	8	high_cue	n/a	n/a	n/a	n/a	n/a	n/a	n/a	h032.png	n/a	n/a	n/a
270.41	0.99	cue	9	high_cue	n/a	n/a	n/a	n/a	n/a	n/a	n/a	h011.png	n/a	n/a	n/a
304.1	0.99	cue	10	low_cue	n/a	n/a	n/a	n/a	n/a	n/a	n/a	l050.png	n/a	n/a	n/a
338.11	0.98	cue	11	low_cue	n/a	n/a	n/a	n/a	n/a	n/a	n/a	l021.png	n/a	n/a	n/a
376.11	0.98	cue	12	high_cue	n/a	n/a	n/a	n/a	n/a	n/a	n/a	h017.png	n/a	n/a	n/a
14.34	3.1	expectrating	1	low_cue	n/a	8.33	Weak	8.33	Weak	0.15	2.95	l053.png	n/a	n/a	n/a
53.71	3.56	expectrating	2	low_cue	n/a	9.69	Weak	9.69	Weak	0.38	3.17	l037.png	n/a	n/a	n/a
85.82	3.67	expectrating	3	high_cue	n/a	60.97	Strong	60.97	Strong	0.5	3.17	h015.png	n/a	n/a	n/a
119.32		expectrating	4	high_cue	n/a			49.55	Strong	1.1	3.45	h050.png	n/a	n/a	n/a
152.71	3.07	expectrating	5	high_cue	n/a	33.69	Strong	33.69	Strong	0.73	2.34	h009.png	n/a	n/a	n/a
187.11		expectrating	6	low_cue	n/a			7.21	Weak	0.43	3.97	l012.png	n/a	n/a	n/a
216.52	3.78	expectrating	7	low_cue	n/a	5.53	Weak	5.53	Weak	0.37	3.42	l046.png	n/a	n/a	n/a
247.31		expectrating	8	high_cue	n/a			49.89	Strong	1.13	3.98	h032.png	n/a	n/a	n/a
272.41	3.92	expectrating	9	high_cue	n/a	53.31	Strong	53.31	Strong	1.12	2.81	h011.png	n/a	n/a	n/a
306.32	1.75	expectrating	10	low_cue	n/a	1.64	Barely detectable	1.64	Barely detectable	0.07	1.68	l050.png	n/a	n/a	n/a
340.32		expectrating	11	low_cue	n/a			5.32	Weak	0.73	2.55	l021.png	n/a	n/a	n/a
378.91		expectrating	12	high_cue	n/a			45.65	Strong	0.27	3.5	h017.png	n/a	n/a	n/a
32.52	6.99	stimulus	1	low_cue	med_stim	n/a	n/a	n/a	n/a	n/a	n/a	43_100.jpg	same	same	True
62.41	7.0	stimulus	2	low_cue	high_stim	n/a	n/a	n/a	n/a	n/a	n/a	18_150.jpg	same	diff	False
92.51	7.0	stimulus	3	high_cue	low_stim	n/a	n/a	n/a	n/a	n/a	n/a	35_50.jpg	same	same	True
132.8	7.0	stimulus	4	high_cue	med_stim	n/a	n/a	n/a	n/a	n/a	n/a	5_100.jpg	same	same	True
170.92	7.0	stimulus	5	high_cue	high_stim	n/a	n/a	n/a	n/a	n/a	n/a	11_150_R.jpg	diff	diff	True
195.61	7.0	stimulus	6	low_cue	high_stim	n/a	n/a	n/a	n/a	n/a	n/a	29_150_R.jpg	diff	diff	True
225.01	7.0	stimulus	7	low_cue	low_stim	n/a	n/a	n/a	n/a	n/a	n/a	44_50_R.jpg	diff	diff	True
254.02	6.99	stimulus	8	high_cue	high_stim	n/a	n/a	n/a	n/a	n/a	n/a	47_150_R.jpg	diff	diff	True
281.71	7.0	stimulus	9	high_cue	low_stim	n/a	n/a	n/a	n/a	n/a	n/a	44_50.jpg	same	same	True
313.61	7.0	stimulus	10	low_cue	med_stim	n/a	n/a	n/a	n/a	n/a	n/a	44_100_R.jpg	diff	diff	True
352.2	7.0	stimulus	11	low_cue	low_stim	n/a	n/a	n/a	n/a	n/a	n/a	29_50_R.jpg	diff	diff	True
387.42	6.99	stimulus	12	high_cue	med_stim	n/a	n/a	n/a	n/a	n/a	n/a	42_100.jpg	same	same	True
45.32		outcomerating	1	low_cue	med_stim			23.89	Moderate	0.95	2.9	task-cognitive_scale.png	n/a	n/a	n/a
75.22	3.75	outcomerating	2	low_cue	high_stim	14.93	Moderate	14.93	Moderate	0.95	2.8	task-cognitive_scale.png	n/a	n/a	n/a
100.43	3.54	outcomerating	3	high_cue	low_stim	39.95	Strong	39.95	Strong	1.25	2.29	task-cognitive_scale.png	n/a	n/a	n/a
145.61		outcomerating	4	high_cue	med_stim			22.74	Moderate	0.7	3.15	task-cognitive_scale.png	n/a	n/a	n/a
179.62		outcomerating	5	high_cue	high_stim			9.69	Weak	0.33	2.77	task-cognitive_scale.png	n/a	n/a	n/a
204.31	3.95	outcomerating	6	low_cue	high_stim	4.15	Weak	4.15	Weak	0.62	3.34	task-cognitive_scale.png	n/a	n/a	n/a
238.11	2.9	outcomerating	7	low_cue	low_stim	1.85	Barely detectable	1.85	Barely detectable	0.92	1.99	task-cognitive_scale.png	n/a	n/a	n/a
263.02		outcomerating	8	high_cue	high_stim			30.37	Strong	0.62	2.55	task-cognitive_scale.png	n/a	n/a	n/a
298.62		outcomerating	9	high_cue	low_stim			5.98	Weak	0.75	2.67	task-cognitive_scale.png	n/a	n/a	n/a
329.81	0.02	outcomerating	10	low_cue	med_stim							task-cognitive_scale.png	n/a	n/a	n/a
363.91	3.01	outcomerating	11	low_cue	low_stim	6.29	Weak	6.29	Weak	0.8	2.21	task-cognitive_scale.png	n/a	n/a	n/a
395.02	2.95	outcomerating	12	high_cue	med_stim	15.79	Moderate	15.79	Moderate	1.03	1.92	task-cognitive_scale.png	n/a	n/a	n/a
