onset	duration	trial_type	trial_index	cue	stimulusintensity	rating_value	rating_glmslabel	rating_value_fillna	rating_glmslabel_fillna	rating_mouseonset	rating_mousedur	stim_file	correct_response	participant_response	response_accuracy
4.69	0.99	cue	1	high_cue	n/a	n/a	n/a	n/a	n/a	n/a	n/a	h049.png	n/a	n/a	n/a
37.2	0.98	cue	2	low_cue	n/a	n/a	n/a	n/a	n/a	n/a	n/a	l004.png	n/a	n/a	n/a
62.19	0.99	cue	3	low_cue	n/a	n/a	n/a	n/a	n/a	n/a	n/a	l035.png	n/a	n/a	n/a
91.79	0.99	cue	4	low_cue	n/a	n/a	n/a	n/a	n/a	n/a	n/a	l001.png	n/a	n/a	n/a
120.1	0.98	cue	5	high_cue	n/a	n/a	n/a	n/a	n/a	n/a	n/a	h053.png	n/a	n/a	n/a
149.29	0.99	cue	6	high_cue	n/a	n/a	n/a	n/a	n/a	n/a	n/a	h002.png	n/a	n/a	n/a
178.59	1.0	cue	7	high_cue	n/a	n/a	n/a	n/a	n/a	n/a	n/a	h020.png	n/a	n/a	n/a
218.98	1.0	cue	8	high_cue	n/a	n/a	n/a	n/a	n/a	n/a	n/a	h034.png	n/a	n/a	n/a
245.49	0.99	cue	9	low_cue	n/a	n/a	n/a	n/a	n/a	n/a	n/a	l003.png	n/a	n/a	n/a
276.39	0.99	cue	10	low_cue	n/a	n/a	n/a	n/a	n/a	n/a	n/a	l056.png	n/a	n/a	n/a
322.99	0.99	cue	11	low_cue	n/a	n/a	n/a	n/a	n/a	n/a	n/a	l006.png	n/a	n/a	n/a
362.29	0.99	cue	12	high_cue	n/a	n/a	n/a	n/a	n/a	n/a	n/a	h019.png	n/a	n/a	n/a
7.1	1.87	expectrating	1	high_cue	n/a	68.68	Very Strong	68.68	Very Strong	0.37	1.51	h049.png	n/a	n/a	n/a
39.0	3.57	expectrating	2	low_cue	n/a	20.78	Moderate	20.78	Moderate	1.07	2.5	l004.png	n/a	n/a	n/a
64.29	2.1	expectrating	3	low_cue	n/a	9.95	Weak	9.95	Weak	0.38	1.72	l035.png	n/a	n/a	n/a
94.9	2.35	expectrating	4	low_cue	n/a	6.98	Weak	6.98	Weak	0.33	2.02	l001.png	n/a	n/a	n/a
122.5	2.43	expectrating	5	high_cue	n/a	54.46	Strong	54.46	Strong	0.3	2.13	h053.png	n/a	n/a	n/a
151.39	2.05	expectrating	6	high_cue	n/a	48.79	Strong	48.79	Strong	0.27	1.79	h002.png	n/a	n/a	n/a
180.7	1.5	expectrating	7	high_cue	n/a	41.75	Strong	41.75	Strong	0.05	1.45	h020.png	n/a	n/a	n/a
221.1	2.58	expectrating	8	high_cue	n/a	53.61	Strong	53.61	Strong	0.28	2.3	h034.png	n/a	n/a	n/a
248.59	2.28	expectrating	9	low_cue	n/a	9.15	Weak	9.15	Weak	0.33	1.95	l003.png	n/a	n/a	n/a
279.49	1.36	expectrating	10	low_cue	n/a	9.91	Weak	9.91	Weak	0.2	1.16	l056.png	n/a	n/a	n/a
325.39	1.87	expectrating	11	low_cue	n/a	7.13	Weak	7.13	Weak	0.37	1.51	l006.png	n/a	n/a	n/a
365.4	1.56	expectrating	12	high_cue	n/a	52.81	Strong	52.81	Strong	0.3	1.26	h019.png	n/a	n/a	n/a
21.89	7.0	stimulus	1	high_cue	low_stim	n/a	n/a	n/a	n/a	n/a	n/a	27_50_R.jpg	diff	same	False
46.1	6.99	stimulus	2	low_cue	low_stim	n/a	n/a	n/a	n/a	n/a	n/a	18_50.jpg	same	diff	False
77.1	7.0	stimulus	3	low_cue	med_stim	n/a	n/a	n/a	n/a	n/a	n/a	42_100_R.jpg	diff	diff	True
106.09	7.0	stimulus	4	low_cue	high_stim	n/a	n/a	n/a	n/a	n/a	n/a	42_150_R.jpg	diff	diff	True
134.1	6.99	stimulus	5	high_cue	med_stim	n/a	n/a	n/a	n/a	n/a	n/a	11_100_R.jpg	diff	diff	True
162.9	7.0	stimulus	6	high_cue	high_stim	n/a	n/a	n/a	n/a	n/a	n/a	35_150.jpg	same	same	True
189.29	7.0	stimulus	7	high_cue	low_stim	n/a	n/a	n/a	n/a	n/a	n/a	29_50.jpg	same	same	True
228.0	6.99	stimulus	8	high_cue	high_stim	n/a	n/a	n/a	n/a	n/a	n/a	10_150_R.jpg	diff	diff	True
259.2	7.0	stimulus	9	low_cue	low_stim	n/a	n/a	n/a	n/a	n/a	n/a	42_50_R.jpg	diff	same	False
290.79	7.0	stimulus	10	low_cue	med_stim	n/a	n/a	n/a	n/a	n/a	n/a	11_100.jpg	same	diff	False
332.79	7.0	stimulus	11	low_cue	high_stim	n/a	n/a	n/a	n/a	n/a	n/a	5_150_R.jpg	diff	diff	True
377.49	7.0	stimulus	12	high_cue	med_stim	n/a	n/a	n/a	n/a	n/a	n/a	27_100_R.jpg	diff	same	False
31.3	1.67	outcomerating	1	high_cue	low_stim	26.87	Moderate	26.87	Moderate	0.48	1.18	task-cognitive_scale.png	n/a	n/a	n/a
57.29	1.94	outcomerating	2	low_cue	low_stim	12.06	Moderate	12.06	Moderate	0.55	1.39	task-cognitive_scale.png	n/a	n/a	n/a
86.7	2.25	outcomerating	3	low_cue	med_stim	4.4	Weak	4.4	Weak	0.5	1.75	task-cognitive_scale.png	n/a	n/a	n/a
115.39	3.03	outcomerating	4	low_cue	high_stim	7.7	Weak	7.7	Weak	0.55	2.48	task-cognitive_scale.png	n/a	n/a	n/a
144.69	1.99	outcomerating	5	high_cue	med_stim	23.23	Moderate	23.23	Moderate	0.75	1.24	task-cognitive_scale.png	n/a	n/a	n/a
172.6	2.42	outcomerating	6	high_cue	high_stim	38.44	Strong	38.44	Strong	0.72	1.7	task-cognitive_scale.png	n/a	n/a	n/a
207.2	1.77	outcomerating	7	high_cue	low_stim	22.14	Moderate	22.14	Moderate	0.48	1.28	task-cognitive_scale.png	n/a	n/a	n/a
240.61	2.8	outcomerating	8	high_cue	high_stim	27.93	Moderate	27.93	Moderate	0.62	2.19	task-cognitive_scale.png	n/a	n/a	n/a
270.5	1.8	outcomerating	9	low_cue	low_stim	21.63	Moderate	21.63	Moderate	0.55	1.25	task-cognitive_scale.png	n/a	n/a	n/a
302.0	3.13	outcomerating	10	low_cue	med_stim	13.2	Moderate	13.2	Moderate	0.83	2.3	task-cognitive_scale.png	n/a	n/a	n/a
341.2	2.57	outcomerating	11	low_cue	high_stim	5.07	Weak	5.07	Weak	0.52	2.05	task-cognitive_scale.png	n/a	n/a	n/a
394.1	2.2	outcomerating	12	high_cue	med_stim	54.97	Strong	54.97	Strong	0.6	1.6	task-cognitive_scale.png	n/a	n/a	n/a
