onset	duration	trial_type	trial_index	cue	stimulusintensity	rating_value	rating_glmslabel	rating_value_fillna	rating_glmslabel_fillna	rating_mouseonset	rating_mousedur	stim_file	onset_ttl1	onset_ttl2	onset_ttl3	onset_ttl4	stimulus_delivery_success
5.71	0.98	cue	1	low_cue	n/a	n/a	n/a	n/a	n/a	n/a	n/a	l021.png	n/a	n/a	n/a	n/a	n/a
33.4	1.0	cue	2	low_cue	n/a	n/a	n/a	n/a	n/a	n/a	n/a	l014.png	n/a	n/a	n/a	n/a	n/a
71.1	1.0	cue	3	low_cue	n/a	n/a	n/a	n/a	n/a	n/a	n/a	l023.png	n/a	n/a	n/a	n/a	n/a
100.71	0.98	cue	4	high_cue	n/a	n/a	n/a	n/a	n/a	n/a	n/a	h043.png	n/a	n/a	n/a	n/a	n/a
135.8	1.0	cue	5	high_cue	n/a	n/a	n/a	n/a	n/a	n/a	n/a	h018.png	n/a	n/a	n/a	n/a	n/a
170.6	1.0	cue	6	high_cue	n/a	n/a	n/a	n/a	n/a	n/a	n/a	h014.png	n/a	n/a	n/a	n/a	n/a
196.89	1.0	cue	7	high_cue	n/a	n/a	n/a	n/a	n/a	n/a	n/a	h001.png	n/a	n/a	n/a	n/a	n/a
236.99	1.0	cue	8	low_cue	n/a	n/a	n/a	n/a	n/a	n/a	n/a	l012.png	n/a	n/a	n/a	n/a	n/a
268.3	1.0	cue	9	high_cue	n/a	n/a	n/a	n/a	n/a	n/a	n/a	h050.png	n/a	n/a	n/a	n/a	n/a
301.9	1.0	cue	10	low_cue	n/a	n/a	n/a	n/a	n/a	n/a	n/a	l017.png	n/a	n/a	n/a	n/a	n/a
333.89	1.0	cue	11	high_cue	n/a	n/a	n/a	n/a	n/a	n/a	n/a	h003.png	n/a	n/a	n/a	n/a	n/a
372.49	1.0	cue	12	low_cue	n/a	n/a	n/a	n/a	n/a	n/a	n/a	l039.png	n/a	n/a	n/a	n/a	n/a
7.71	2.95	expectrating	1	low_cue	n/a	11.22	Moderate	11.22	Moderate	0.68	2.27	l021.png	n/a	n/a	n/a	n/a	n/a
35.7	2.82	expectrating	2	low_cue	n/a	21.5	Moderate	21.5	Moderate	0.48	2.34	l014.png	n/a	n/a	n/a	n/a	n/a
73.4	2.07	expectrating	3	low_cue	n/a	10.41	Moderate	10.41	Moderate	0.37	1.71	l023.png	n/a	n/a	n/a	n/a	n/a
103.51	3.13	expectrating	4	high_cue	n/a	50.68	Strong	50.68	Strong	0.62	2.52	h043.png	n/a	n/a	n/a	n/a	n/a
137.5	1.73	expectrating	5	high_cue	n/a	55.29	Strong	55.29	Strong	0.3	1.43	h018.png	n/a	n/a	n/a	n/a	n/a
172.4	2.87	expectrating	6	high_cue	n/a	60.11	Strong	60.11	Strong	0.35	2.52	h014.png	n/a	n/a	n/a	n/a	n/a
199.89	3.11	expectrating	7	high_cue	n/a	60.14	Strong	60.14	Strong	0.28	2.83	h001.png	n/a	n/a	n/a	n/a	n/a
239.71	1.67	expectrating	8	low_cue	n/a	6.47	Weak	6.47	Weak	0.3	1.37	l012.png	n/a	n/a	n/a	n/a	n/a
271.3	1.95	expectrating	9	high_cue	n/a	34.15	Strong	34.15	Strong	0.37	1.58	h050.png	n/a	n/a	n/a	n/a	n/a
304.2	2.02	expectrating	10	low_cue	n/a	13.76	Moderate	13.76	Moderate	0.43	1.59	l017.png	n/a	n/a	n/a	n/a	n/a
336.9	1.52	expectrating	11	high_cue	n/a	58.36	Strong	58.36	Strong	0.33	1.19	h003.png	n/a	n/a	n/a	n/a	n/a
375.49	1.6	expectrating	12	low_cue	n/a	23.47	Moderate	23.47	Moderate	0.32	1.28	l039.png	n/a	n/a	n/a	n/a	n/a
13.76	13.91	stimulus	1	low_cue	med_stim	n/a	n/a	n/a	n/a	n/a	n/a	49c	13.32	18.07	23.07	27.24	success
44.55	13.44	stimulus	2	low_cue	low_stim	n/a	n/a	n/a	n/a	n/a	n/a	48c	44.13	48.52	53.52	57.57	success
82.22	14.55	stimulus	3	low_cue	high_stim	n/a	n/a	n/a	n/a	n/a	n/a	50c	81.81	86.84	91.84	96.36	success
112.84	13.44	stimulus	4	high_cue	low_stim	n/a	n/a	n/a	n/a	n/a	n/a	48c	112.43	116.83	121.83	125.86	success
147.83	14.16	stimulus	5	high_cue	med_stim	n/a	n/a	n/a	n/a	n/a	n/a	49c	147.41	152.23	157.23	161.57	success
179.02	14.65	stimulus	6	high_cue	high_stim	n/a	n/a	n/a	n/a	n/a	n/a	50c	178.61	183.65	188.65	193.26	success
210.22	13.56	stimulus	7	high_cue	low_stim	n/a	n/a	n/a	n/a	n/a	n/a	48c	209.81	214.22	219.22	223.36	success
249.34	14.77	stimulus	8	low_cue	high_stim	n/a	n/a	n/a	n/a	n/a	n/a	50c	248.92	254.07	259.07	263.7	success
277.22	14.7	stimulus	9	high_cue	high_stim	n/a	n/a	n/a	n/a	n/a	n/a	50c	276.8	281.9	286.9	291.51	success
314.54	14.25	stimulus	10	low_cue	med_stim	n/a	n/a	n/a	n/a	n/a	n/a	49c	314.13	318.96	323.96	328.38	success
347.22	14.33	stimulus	11	high_cue	med_stim	n/a	n/a	n/a	n/a	n/a	n/a	49c	346.81	351.67	356.67	361.13	success
381.42	13.62	stimulus	12	low_cue	low_stim	n/a	n/a	n/a	n/a	n/a	n/a	48c	381.01	385.46	390.46	394.63	success
27.9	2.39	outcomerating	1	low_cue	med_stim	29.14	Strong	29.14	Strong	0.5	1.89	task-pain_scale.png	n/a	n/a	n/a	n/a	success
55.41	2.5	outcomerating	2	low_cue	low_stim	16.5	Moderate	16.5	Moderate	0.67	1.83	task-pain_scale.png	n/a	n/a	n/a	n/a	success
93.3	3.3	outcomerating	3	low_cue	high_stim	27.4	Moderate	27.4	Moderate	1.65	1.65	task-pain_scale.png	n/a	n/a	n/a	n/a	success
124.72	2.67	outcomerating	4	high_cue	low_stim	41.34	Strong	41.34	Strong	0.68	1.99	task-pain_scale.png	n/a	n/a	n/a	n/a	success
159.7	2.52	outcomerating	5	high_cue	med_stim	61.81	Strong	61.81	Strong	0.67	1.86	task-pain_scale.png	n/a	n/a	n/a	n/a	success
190.91	3.52	outcomerating	6	high_cue	high_stim	70.33	Very Strong	70.33	Very Strong	0.77	2.75	task-pain_scale.png	n/a	n/a	n/a	n/a	success
231.01	1.95	outcomerating	7	high_cue	low_stim	43.54	Strong	43.54	Strong	0.55	1.4	task-pain_scale.png	n/a	n/a	n/a	n/a	success
259.3		outcomerating	8	low_cue	high_stim			28.52	Moderate	1.38	2.45	task-pain_scale.png	n/a	n/a	n/a	n/a	success
295.7	2.11	outcomerating	9	high_cue	high_stim	43.18	Strong	43.18	Strong	0.52	1.59	task-pain_scale.png	n/a	n/a	n/a	n/a	success
327.71	2.75	outcomerating	10	low_cue	med_stim	14.72	Moderate	14.72	Moderate	0.88	1.87	task-pain_scale.png	n/a	n/a	n/a	n/a	success
361.6	1.95	outcomerating	11	high_cue	med_stim	53.36	Strong	53.36	Strong	0.58	1.37	task-pain_scale.png	n/a	n/a	n/a	n/a	success
394.7	2.32	outcomerating	12	low_cue	low_stim	29.66	Strong	29.66	Strong	0.58	1.74	task-pain_scale.png	n/a	n/a	n/a	n/a	success
