ISI01_biopac,ISI01_duration,ISI01_onset,ISI02_biopac,ISI02_duration,ISI02_onset,ISI03_biopac,ISI03_duration,ISI03_onset,ITI_biopac,ITI_duration,ITI_onset,delay_between_medoc,event01_cue_biopac,event01_cue_filename,event01_cue_onset,event01_cue_type,event02_expect_RT,event02_expect_angle,event02_expect_angle_label,event02_expect_biopac,event02_expect_displayonset,event02_expect_responseonset,event03_stimulusC_RT,event03_stimulusC_reseponseonset,event03_stimulusC_response,event03_stimulusC_responsekeyname,event03_stimulus_C_stim_filename,event03_stimulus_C_stim_match,event03_stimulus_C_stim_num,event03_stimulus_P_delay_between_medoc,event03_stimulus_P_trigger,event03_stimulus_V_filename,event03_stimulus_V_patientid,event03_stimulus_biopac,event03_stimulus_displayonset,event03_stimulus_type,event04_actual_RT,event04_actual_angle,event04_actual_angle_label,event04_actual_biopac,event04_actual_displayonset,event04_actual_responseonset,param_cond_type,param_counterbalance_block_num,param_counterbalance_ver,param_cue_type,param_end_biopac,param_end_instruct_onset,param_experiment_duration,param_run_num,param_start_biopac,param_stimulus_type,param_task_name,param_trigger_onset,session_id,src_subject_id,trial_no
1616689999.1991901,1.58252835273743,1616689999.19691,1616690004.83757,0.54706335067749,1616690004.8323698,1616690014.38823,1.9934504032135,1616690014.3859901,1616689995.29779,2.88514041900635,1616689995.2954302,0.0760350227355957,1616689998.1986198,h020.png,1616689998.19653,high_cue,1.82173609733582,43.3727166776064,FIX,1616690000.81561,1616690000.8141901,1616690002.6359198,0,0,0,,,,0,0,Command Recieved: TRIGGER_AND_Response: RESULT_OK,,,1616690005.46396,1616690005.46295,high_stim,2.13431978225708,30.606407031509498,FIX,1616690016.40432,1616690016.40341,1616690018.53773,6,2,2,high_cue,1616690391.52305,1616690391.51191,399.013818025589,-1,1616689992.5,high_stim,pain,1616689992.49809,4,8,1
1616690025.79244,1.98914074897766,1616690025.7903,1616690031.81149,5.870197296142581,1616690031.80924,1616690046.70104,4.2812340259552,1616690046.6982,1616690020.4402099,4.34233665466309,1616690020.4382699,0.0472390651702881,1616690024.79196,l020.png,1616690024.7899199,low_cue,2.75127100944519,46.963657534052,FIX,1616690027.8036199,1616690027.79105,1616690030.54233,0,0,0,,,,0,0,Command Recieved: TRIGGER_AND_Response: RESULT_OK,,,1616690037.72821,1616690037.72724,high_stim,3.9030437469482404,38.8035865708957,FIX,1616690051.00355,1616690050.99983,1616690054.90287,3,2,2,low_cue,1616690391.52305,1616690391.51191,399.013818025589,-1,1616689992.5,high_stim,pain,1616689992.49809,4,8,2
1616690056.58774,1.3941621780395501,1616690056.58527,1616690062.1224,0.45873522758483903,1616690062.1207,1616690071.5928302,2.78848838806152,1616690071.59095,1616690055.47167,0.11260986328125,1616690055.46819,0.0454108715057373,1616690055.60339,l011.png,1616690055.60157,low_cue,3.56824445724487,50.2840001419773,FIX,1616690058.00393,1616690058.00248,1616690061.57072,0,0,0,,,,0,0,Command Recieved: TRIGGER_AND_Response: RESULT_OK,,,1616690062.62742,1616690062.62576,high_stim,2.40106177330017,32.6508022965956,FIX,1616690074.40392,1616690074.39201,1616690076.7930698,3,2,2,low_cue,1616690391.52305,1616690391.51191,399.013818025589,-1,1616689992.5,high_stim,pain,1616689992.49809,4,8,3
1616690088.59959,1.3820605278015101,1616690088.5973802,1616690094.47154,0.7133581638336178,1616690094.46626,1616690104.18853,3.89282917976379,1616690104.18661,1616690078.4215,9.170390129089359,1616690078.41019,0.0652971267700195,1616690087.59918,h047.png,1616690087.5970001,high_cue,3.9217345714569105,46.130690951238,FIX,1616690090.00399,1616690089.99791,1616690093.91964,0,0,0,,,,0,0,Command Recieved: TRIGGER_AND_Response: RESULT_OK,,,1616690095.24782,1616690095.24599,high_stim,3.1347451210022004,42.3974377975002,FIX,1616690108.1056302,1616690108.10475,1616690111.2395,6,2,2,high_cue,1616690391.52305,1616690391.51191,399.013818025589,-1,1616689992.5,high_stim,pain,1616689992.49809,4,8,4
1616690113.69325,1.9892382621765101,1616690113.6902,1616690119.7111,11.170296430587802,1616690119.70914,1616690139.90334,1.5793285369873,1616690139.90011,1616690112.13972,0.558053493499756,1616690112.12294,0.0344231128692627,1616690112.70595,l012.png,1616690112.6898198,low_cue,3.20141959190369,40.072890052351,FIX,1616690115.70417,1616690115.69095,1616690118.89237,0,0,0,,,,0,0,Command Recieved: TRIGGER_AND_Response: RESULT_OK,,,1616690130.9173698,1616690130.9155,low_stim,2.2026517391204803,22.867056299772702,FIX,1616690141.50416,1616690141.50071,1616690143.7033699,1,2,2,low_cue,1616690391.52305,1616690391.51191,399.013818025589,-1,1616689992.5,low_stim,pain,1616689992.49809,4,8,5
1616690153.3901901,1.9908952713012702,1616690153.38854,1616690159.87613,19.6051094532013,1616690159.87433,1616690188.48841,12.3942956924438,1616690188.48514,1616690145.53804,6.844711542129519,1616690145.53557,0.0308949947357178,1616690152.38958,h014.png,1616690152.38816,high_cue,3.9350106716156,52.165308732915896,FIX,1616690155.404,1616690155.3893,1616690159.32431,0,0,0,,,,0,0,Command Recieved: TRIGGER_AND_Response: RESULT_OK,,,1616690179.5120199,1616690179.51116,low_stim,2.8846275806427,28.628870905535003,FIX,1616690200.9044302,1616690200.88983,1616690203.77446,4,2,2,high_cue,1616690391.52305,1616690391.51191,399.013818025589,-1,1616689992.5,low_stim,pain,1616689992.49809,4,8,6
1616690212.79635,1.18510103225708,1616690212.7943301,1616690218.0149698,2.96646022796631,1616690218.01297,1616690229.9886801,3.8952670097351096,1616690229.98417,1616690204.9218302,6.872241020202639,1616690204.90802,0.0474491119384766,1616690211.7960901,l014.png,1616690211.7939599,low_cue,3.16809439659119,34.071609807394196,FIX,1616690214.00451,1616690213.99479,1616690217.1628802,0,0,0,,,,0,0,Command Recieved: TRIGGER_AND_Response: RESULT_OK,,,1616690221.02808,1616690221.02734,med_stim,2.8014988899230997,38.6598082540901,FIX,1616690233.90467,1616690233.90232,1616690236.70382,2,2,2,low_cue,1616690391.52305,1616690391.51191,399.013818025589,-1,1616689992.5,med_stim,pain,1616689992.49809,4,8,7
1616690245.9925199,1.58921670913696,1616690245.9902198,1616690251.6106,0.970424890518188,1616690251.60901,1616690261.5975301,4.88331627845764,1616690261.5961199,1616690237.93909,7.0430896282196,1616690237.93717,0.0664079189300537,1616690244.99199,h031.png,1616690244.98984,high_cue,2.56791090965271,39.305569282244605,FIX,1616690247.6047099,1616690247.59083,1616690250.15874,0,0,0,,,,0,0,Command Recieved: TRIGGER_AND_Response: RESULT_OK,,,1616690252.64854,1616690252.64675,med_stim,2.90595769882202,33.5627437810924,FIX,1616690266.5048301,1616690266.4979699,1616690269.4039302,5,2,2,high_cue,1616690391.52305,1616690391.51191,399.013818025589,-1,1616689992.5,med_stim,pain,1616689992.49809,4,8,8
1616690277.38893,0.894013404846191,1616690277.3854198,1616690282.32198,1.5588142871856698,1616690282.3206198,1616690292.89272,2.38814949989319,1616690292.89129,1616690270.52146,5.86412477493286,1616690270.51616,0.0379269123077393,1616690276.3887,h006.png,1616690276.38505,high_cue,,,FIX,1616690278.3048198,1616690278.30244,,0,0,0,,,,0,0,Command Recieved: TRIGGER_AND_Response: RESULT_OK,,,1616690283.91921,1616690283.91809,med_stim,3.48480224609375,43.53119928561421,FIX,1616690295.3052099,1616690295.29219,1616690298.7770002,5,2,2,high_cue,1616690391.52305,1616690391.51191,399.013818025589,-1,1616689992.5,med_stim,pain,1616689992.49809,4,8,9
1616690305.3977098,1.9834213256835902,1616690305.39601,1616690311.80544,1.1810014247894298,1616690311.79844,1616690321.98892,5.493816375732419,1616690321.98562,1616690299.34558,5.03656077384949,1616690299.34373,0.0628528594970703,1616690304.39764,l028.png,1616690304.3956401,low_cue,3.8574256896972696,46.4604825118437,FIX,1616690307.40502,1616690307.39677,1616690311.2542,0,0,0,,,,0,0,Command Recieved: TRIGGER_AND_Response: RESULT_OK,,,1616690313.04407,1616690313.043,med_stim,3.78499484062195,21.1542708220455,FIX,1616690327.5049698,1616690327.4877,1616690331.2727,2,2,2,low_cue,1616690391.52305,1616690391.51191,399.013818025589,-1,1616689992.5,med_stim,pain,1616689992.49809,4,8,10
1616690334.7922802,0.888975381851196,1616690334.7904599,1616690339.7111099,6.2704484462738,1616690339.70899,1616690355.00595,2.781334400177,1616690354.9981,1616690331.84083,1.9409422874450701,1616690331.83935,0.0655851364135742,1616690333.79185,h002.png,1616690333.79008,high_cue,2.9345614910125697,43.6677801461304,FIX,1616690335.70519,1616690335.6908,1616690338.62536,0,0,0,,,,0,0,Command Recieved: TRIGGER_AND_Response: RESULT_OK,,,1616690346.0468,1616690346.04567,low_stim,2.3052372932434104,28.7203267978695,FIX,1616690357.80021,1616690357.79916,1616690360.1044,4,2,2,high_cue,1616690391.52305,1616690391.51191,399.013818025589,-1,1616689992.5,low_stim,pain,1616689992.49809,4,8,11
1616690365.08931,0.894186973571777,1616690365.08525,1616690370.17276,0.6089322566986078,1616690370.1705,1616690379.79245,7.6886272430419895,1616690379.7908099,1616690361.82234,2.2629430294036896,1616690361.81735,0.0571539402008057,1616690364.0893,l003.png,1616690364.0848699,low_cue,3.6189191341400098,43.00212014352329,FIX,1616690366.00522,1616690366.00226,1616690369.62118,0,0,0,,,,0,0,Command Recieved: TRIGGER_AND_Response: RESULT_OK,,,1616690370.8387802,1616690370.83711,low_stim,2.48445439338684,19.9634442785012,FIX,1616690387.49463,1616690387.4937198,1616690389.9781802,1,2,2,low_cue,1616690391.52305,1616690391.51191,399.013818025589,-1,1616689992.5,low_stim,pain,1616689992.49809,4,8,12
1616087158.60801,1.6829130649566697,1616087158.60675,1616087164.52717,1.86404037475586,1616087164.52563,1616087175.4074302,1.7933189868927,1616087175.39635,1616087150.60757,6.98652744293213,1616087150.60377,0.0662519931793213,1616087157.60765,h006.png,1616087157.60638,high_cue,3.66814112663269,43.53951748815639,FIX,1616087160.32335,1616087160.30739,1616087163.9755301,0,0,0,,,,0,0,Command Recieved: TRIGGER_AND_Response: RESULT_OK,,,1616087166.45861,1616087166.4581,med_stim,1.8175117969512902,59.941874520513295,FIX,1616087177.2148302,1616087177.21369,1616087179.0312,5,2,2,high_cue,1616087546.62384,1616087546.61812,398.82335114479105,6,1616087147.79559,med_stim,pain,1616087147.79477,3,8,13
1616087183.60788,0.49026179313659707,1616087183.59941,1616087188.17392,2.02189016342163,1616087188.1677802,1616087199.2074802,1.38444018363953,1616087199.20523,1616087181.2497199,1.34123468399048,1616087181.2485301,0.0510070323944092,1616087182.6077302,h005.png,1616087182.59903,high_cue,3.5235986709594704,51.7003113249664,FIX,1616087184.10679,1616087184.09959,1616087187.62319,0,0,0,,,,0,0,Command Recieved: TRIGGER_AND_Response: RESULT_OK,,,1616087190.24174,1616087190.2413,high_stim,2.7179727554321302,47.145524354897006,FIX,1616087200.60652,1616087200.60575,1616087203.32372,6,2,2,high_cue,1616087546.62384,1616087546.61812,398.82335114479105,6,1616087147.79559,high_stim,pain,1616087147.79477,3,8,14
1616087209.5077698,1.0972726345062298,1616087209.4923902,1616087214.62889,2.16202211380005,1616087214.62764,1616087225.80792,2.79119038581848,1616087225.79848,1616087204.6243901,3.8658506870269798,1616087204.62391,0.0378849506378174,1616087208.50985,l010.png,1616087208.50869,low_cue,3.40148520469666,42.8789036033385,FIX,1616087210.6097698,1616087210.6094801,1616087214.0109599,0,0,0,,,,0,0,Command Recieved: TRIGGER_AND_Response: RESULT_OK,,,1616087216.82886,1616087216.8282,high_stim,2.8569598197937,39.305569282244605,FIX,1616087228.60702,1616087228.59952,1616087231.45648,3,2,2,low_cue,1616087546.62384,1616087546.61812,398.82335114479105,6,1616087147.79559,high_stim,pain,1616087147.79477,3,8,15
1616087238.90747,2.88630366325378,1616087238.90336,1616087245.82407,4.1670560836792,1616087245.82261,1616087259.00772,1.3954782485961899,1616087258.99419,1616087232.63533,5.25541543960571,1616087232.63436,0.0756819248199463,1616087237.90755,h015.png,1616087237.90299,high_cue,2.35209941864014,45.6510603802295,FIX,1616087241.80673,1616087241.80444,1616087244.1565402,0,0,0,,,,0,0,Command Recieved: TRIGGER_AND_Response: RESULT_OK,,,1616087250.0663,1616087250.06602,low_stim,2.81796264648438,38.6598082540901,FIX,1616087260.41173,1616087260.41138,1616087263.22935,4,2,2,high_cue,1616087546.62384,1616087546.61812,398.82335114479105,6,1616087147.79559,low_stim,pain,1616087147.79477,3,8,16
1616087267.40781,2.8923428058624303,1616087267.39732,1616087274.31751,5.07309603691101,1616087274.3165698,1616087288.4077802,2.78450870513916,1616087288.40516,1616087264.4405699,1.9602160453796398,1616087264.42955,0.0604779720306396,1616087266.40762,h007.png,1616087266.39695,high_cue,2.1082170009613,40.4519575908746,FIX,1616087270.30685,1616087270.2984,1616087272.40662,0,0,0,,,,0,0,Command Recieved: TRIGGER_AND_Response: RESULT_OK,,,1616087279.45087,1616087279.45062,med_stim,2.7178108692169203,38.9824969671543,FIX,1616087291.2066698,1616087291.2062,1616087293.92401,5,2,2,high_cue,1616087546.62384,1616087546.61812,398.82335114479105,6,1616087147.79559,med_stim,pain,1616087147.79477,3,8,17
1616087306.40757,2.89446806907654,1616087306.3952,1616087313.3322198,0.8585467338562008,1616087313.33112,1616087323.20781,2.88819789886475,1616087323.20147,1616087295.22527,10.1654000282288,1616087295.22437,0.0390129089355469,1616087305.4076,l039.png,1616087305.39483,low_cue,2.95132207870483,49.2244032170839,FIX,1616087309.31351,1616087309.31295,1616087312.26428,0,0,0,,,,0,0,Command Recieved: TRIGGER_AND_Response: RESULT_OK,,,1616087314.22934,1616087314.22912,low_stim,2.6206655502319305,44.8376894440633,FIX,1616087326.10695,1616087326.10255,1616087328.7232099,1,2,2,low_cue,1616087546.62384,1616087546.61812,398.82335114479105,6,1616087147.79559,low_stim,pain,1616087147.79477,3,8,18
1616087333.70753,0.48428320884704606,1616087333.70538,1616087338.22454,7.86593127250671,1616087338.22374,1616087355.10747,11.792972326278699,1616087355.09669,1616087330.12356,2.5690534114837598,1616087330.12071,0.0328350067138672,1616087332.7075,l003.png,1616087332.70501,low_cue,,,FIX,1616087334.20655,1616087334.20557,,0,0,0,,,,0,0,Command Recieved: TRIGGER_AND_Response: RESULT_OK,,,1616087346.1233,1616087346.1229901,med_stim,,,FIX,1616087366.90695,1616087366.9011,,2,2,2,low_cue,1616087546.62384,1616087546.61812,398.82335114479105,6,1616087147.79559,med_stim,pain,1616087147.79477,3,8,19
1616087373.90748,1.08595895767212,1616087373.90371,1616087379.02417,6.8673837184906,1616087379.02228,1616087394.90763,2.8947973251342796,1616087394.8948698,1616087370.93697,1.95383620262146,1616087370.93593,0.0616068840026855,1616087372.90731,l036.png,1616087372.90333,low_cue,2.0357913970947297,39.4515337062819,FIX,1616087375.00668,1616087375.0041199,1616087377.03991,0,0,0,,,,0,0,Command Recieved: TRIGGER_AND_Response: RESULT_OK,,,1616087385.9519598,1616087385.95172,med_stim,2.37726616859436,45.8115006837119,FIX,1616087397.80689,1616087397.79595,1616087400.17322,2,2,2,low_cue,1616087546.62384,1616087546.61812,398.82335114479105,6,1616087147.79559,med_stim,pain,1616087147.79477,3,8,20
1616087404.80778,1.69110321998596,1616087404.79856,1616087410.51824,6.872305631637571,1616087410.51736,1616087426.40753,4.58304524421692,1616087426.40662,1616087401.83188,1.9589807987213101,1616087401.83079,0.070220947265625,1616087403.80775,h053.png,1616087403.79819,high_cue,3.19078183174133,52.165308732915896,FIX,1616087406.50671,1616087406.4992,1616087409.68998,0,0,0,,,,0,0,Command Recieved: TRIGGER_AND_Response: RESULT_OK,,,1616087417.46118,1616087417.4607902,high_stim,2.4011662006378196,54.8378509660332,FIX,1616087431.00855,1616087431.0083401,1616087433.4095,6,2,2,high_cue,1616087546.62384,1616087546.61812,398.82335114479105,6,1616087147.79559,high_stim,pain,1616087147.79477,3,8,21
1616087440.40774,1.19449472427368,1616087440.39517,1616087445.78185,4.90915393829346,1616087445.78051,1616087459.7079,7.9872953891754195,1616087459.70237,1616087435.04071,4.36326599121094,1616087435.0265,0.0543410778045654,1616087439.4080698,l037.png,1616087439.3948,low_cue,3.6181466579437296,28.8309683123904,FIX,1616087441.6126301,1616087441.6122901,1616087445.2304401,0,0,0,,,,0,0,Command Recieved: TRIGGER_AND_Response: RESULT_OK,,,1616087450.7448401,1616087450.74451,low_stim,3.21818709373474,32.5417535599951,FIX,1616087467.70668,1616087467.70535,1616087470.92354,1,2,2,low_cue,1616087546.62384,1616087546.61812,398.82335114479105,6,1616087147.79559,low_stim,pain,1616087147.79477,3,8,22
1616087485.4075801,0.694380283355713,1616087485.3952901,1616087490.13171,6.05928134918213,1616087490.1303802,1616087505.20749,6.08699512481689,1616087505.2026699,1616087471.72397,12.666251420974698,1616087471.72352,0.0415580272674561,1616087484.40739,h031.png,1616087484.3949099,high_cue,1.9512045383453402,10.6337744921121,FIX,1616087486.1126199,1616087486.1122198,1616087488.0634198,0,0,0,,,,0,0,Command Recieved: TRIGGER_AND_Response: RESULT_OK,,,1616087496.23256,1616087496.2321901,low_stim,3.0682530403137203,31.9081069356532,FIX,1616087511.30685,1616087511.30495,1616087514.3732,4,2,2,high_cue,1616087546.62384,1616087546.61812,398.82335114479105,6,1616087147.79559,low_stim,pain,1616087147.79477,3,8,23
1616087516.80816,0.782667636871338,1616087516.8070002,1616087521.62646,4.46420311927795,1616087521.62546,1616087535.10756,7.492513418197629,1616087535.09715,1616087515.32356,0.466650247573853,1616087515.3231099,0.0349171161651611,1616087515.80748,l019.png,1616087515.8066301,low_cue,,,FIX,1616087517.6076698,1616087517.6073,,0,0,0,,,,0,0,Command Recieved: TRIGGER_AND_Response: RESULT_OK,,,1616087526.12573,1616087526.12524,high_stim,2.70676040649414,50.2840001419773,FIX,1616087542.60701,1616087542.59995,1616087545.30671,3,2,2,low_cue,1616087546.62384,1616087546.61812,398.82335114479105,6,1616087147.79559,high_stim,pain,1616087147.79477,3,8,24
1616084930.57743,2.19368267059326,1616084930.57587,1616084936.84548,4.024675130844121,1616084936.8448699,1616084949.89116,5.08647918701172,1616084949.88307,1616084924.37709,5.19645571708679,1616084924.37356,0.0666229724884033,1616084929.59173,l052.png,1616084929.5755,low_cue,,,FIX,1616084932.8271,1616084932.82671,,0,0,0,,,,0,0,Command Recieved: TRIGGER_AND_Response: RESULT_OK,,,1616084940.95649,1616084940.95607,med_stim,2.0047545433044403,35.029702389451195,FIX,1616084954.98991,1616084954.9849699,1616084956.9897301,2,1,2,low_cue,1616085320.40705,1616085320.40458,398.82251501083397,1,1616084921.58845,med_stim,pain,1616084921.5820599,3,8,25
1616084963.29085,1.8814806938171398,1616084963.28807,1616084969.20819,4.06260704994202,1616084969.20694,1616084982.2912,0.891066074371338,1616084982.27848,1616084959.1408901,3.1333909034729,1616084959.13652,0.0369889736175537,1616084962.29079,h038.png,1616084962.2877,high_cue,2.8180322647094704,58.9182701696221,FIX,1616084965.18994,1616084965.18878,1616084968.00681,0,0,0,,,,0,0,Command Recieved: TRIGGER_AND_Response: RESULT_OK,,,1616084973.3080199,1616084973.30739,low_stim,2.11765360832214,33.2449372403005,FIX,1616084983.19613,1616084983.1954901,1616084985.31315,4,1,2,high_cue,1616085320.40705,1616085320.40458,398.82251501083397,1,1616084921.58845,low_stim,pain,1616084921.5820599,3,8,26
1616084993.38425,1.88692593574524,1616084993.38263,1616084999.32386,11.1513764858246,1616084999.3181698,1616085019.4916198,4.99386119842529,1616085019.4756901,1616084987.24781,5.122872591018679,1616084987.2470002,0.0425319671630859,1616084992.39098,h006.png,1616084992.38225,high_cue,3.0230481624603303,53.22281389057489,FIX,1616084995.30098,1616084995.30001,1616084998.32306,0,0,0,,,,0,0,Command Recieved: TRIGGER_AND_Response: RESULT_OK,,,1616085010.5136,1616085010.51294,high_stim,2.5014004707336404,46.46880071438579,FIX,1616085024.48979,1616085024.47755,1616085026.97896,6,1,2,high_cue,1616085320.40705,1616085320.40458,398.82251501083397,1,1616084921.58845,high_stim,pain,1616084921.5820599,3,8,27
1616085031.3908,1.78941988945007,1616085031.38013,1616085037.20054,1.6705861091613798,1616085037.1989698,1616085047.89088,0.483266115188599,1616085047.88628,1616085028.52405,1.85747885704041,1616085028.5123901,0.0578930377960205,1616085030.39103,l008.png,1616085030.37976,low_cue,3.1594276428222696,45.0,FIX,1616085033.18971,1616085033.1808,1616085036.34023,0,0,0,,,,0,0,Command Recieved: TRIGGER_AND_Response: RESULT_OK,,,1616085038.9282699,1616085038.92793,med_stim,2.60312533378601,39.805571092265204,FIX,1616085048.38979,1616085048.3864698,1616085050.9896,2,1,2,low_cue,1616085320.40705,1616085320.40458,398.82251501083397,1,1616084921.58845,med_stim,pain,1616084921.5820599,3,8,28
1616085056.6924698,0.5799846649169921,1616085056.68957,1616085061.3090599,4.06159543991089,1616085061.30795,1616085074.3918,0.590052127838135,1616085074.3795,1616085052.42474,3.24905800819397,1616085052.42131,0.0582239627838135,1616085055.6918302,h005.png,1616085055.6891901,high_cue,,,FIX,1616085057.2899,1616085057.2897902,,0,0,0,,,,0,0,Command Recieved: TRIGGER_AND_Response: RESULT_OK,,,1616085065.4303699,1616085065.4292,low_stim,2.14315319061279,43.53951748815639,FIX,1616085074.9897199,1616085074.9797199,1616085077.12287,4,1,2,high_cue,1616085320.40705,1616085320.40458,398.82251501083397,1,1616084921.58845,low_stim,pain,1616084921.5820599,3,8,29
1616085087.1855,1.2852773666381798,1616085087.18427,1616085092.50728,0.966627836227417,1616085092.50292,1616085102.49051,8.79624319076538,1616085102.47331,1616085079.04025,7.13842105865479,1616085079.03123,0.0373380184173584,1616085086.1905699,l004.png,1616085086.1839,low_cue,2.47149395942688,37.5126118028564,FIX,1616085088.48968,1616085088.48476,1616085090.95625,0,0,0,,,,0,0,Command Recieved: TRIGGER_AND_Response: RESULT_OK,,,1616085093.50785,1616085093.5074599,high_stim,3.3514246940612797,42.978635059644006,FIX,1616085111.28973,1616085111.27659,1616085114.6280198,3,1,2,low_cue,1616085320.40705,1616085320.40458,398.82251501083397,1,1616084921.58845,high_stim,pain,1616084921.5820599,3,8,30
1616085119.59074,0.9898653030395509,1616085119.57969,1616085124.7404401,3.3379430770874,1616085124.73161,1616085137.09129,5.18333554267883,1616085137.08622,1616085115.30693,3.2748963832855202,1616085115.29476,0.0342979431152344,1616085118.59054,l014.png,1616085118.57931,low_cue,3.60952830314636,49.723111789790295,FIX,1616085120.58967,1616085120.58006,1616085124.18959,0,0,0,,,,0,0,Command Recieved: TRIGGER_AND_Response: RESULT_OK,,,1616085128.10492,1616085128.10462,low_stim,1.9847400188446,34.071609807394196,FIX,1616085142.28962,1616085142.2881598,1616085144.2729,1,1,2,low_cue,1616085320.40705,1616085320.40458,398.82251501083397,1,1616084921.58845,low_stim,pain,1616084921.5820599,3,8,31
1616085148.0749302,1.3959047794341999,1616085148.07365,1616085153.51014,3.46054434776306,1616085153.50901,1616085165.99078,3.0892276763916002,1616085165.98032,1616085146.30773,0.7633318901062008,1616085146.30632,0.0392448902130127,1616085147.07425,h040.png,1616085147.0732698,high_cue,2.9513511657714804,49.871391031524105,FIX,1616085149.49113,1616085149.49084,1616085152.44219,0,0,0,,,,0,0,Command Recieved: TRIGGER_AND_Response: RESULT_OK,,,1616085157.00996,1616085157.00944,med_stim,2.4748060703277597,41.0772871094895,FIX,1616085169.0897698,1616085169.08148,1616085171.5562901,5,1,2,high_cue,1616085320.40705,1616085320.40458,398.82251501083397,1,1616084921.58845,med_stim,pain,1616084921.5820599,3,8,32
1616085177.68578,0.9848613739013671,1616085177.68469,1616085182.7075,1.6663234233856201,1616085182.7032301,1616085193.39068,6.49567770957947,1616085193.37387,1616085173.1069698,3.5700070858001696,1616085173.09965,0.0539381504058838,1616085176.69055,l039.png,1616085176.68432,low_cue,3.10455679893494,42.242843367343895,FIX,1616085178.68969,1616085178.68506,1616085181.78962,0,0,0,,,,0,0,Command Recieved: TRIGGER_AND_Response: RESULT_OK,,,1616085184.42448,1616085184.4241,high_stim,2.6844656467437704,48.749064522348,FIX,1616085199.88969,1616085199.8763,1616085202.56077,3,1,2,low_cue,1616085320.40705,1616085320.40458,398.82251501083397,1,1616084921.58845,high_stim,pain,1616084921.5820599,3,8,33
1616085211.1811302,1.88903713226318,1616085211.18051,1616085217.1004698,4.170164346694951,1616085217.09939,1616085230.29078,3.1819093227386497,1616085230.28764,1616085203.91205,6.25851655006409,1616085203.91114,0.0384590625762939,1616085210.19063,h036.png,1616085210.18014,high_cue,3.2416718006133998,33.8812651906146,FIX,1616085213.0896301,1616085213.08122,1616085216.3229,0,0,0,,,,0,0,Command Recieved: TRIGGER_AND_Response: RESULT_OK,,,1616085221.30953,1616085221.30875,med_stim,1.93416333198547,42.3974377975002,FIX,1616085233.48959,1616085233.48883,1616085235.4229999,5,1,2,high_cue,1616085320.40705,1616085320.40458,398.82251501083397,1,1616084921.58845,med_stim,pain,1616084921.5820599,3,8,34
1616085241.77626,1.79429364204407,1616085241.77526,1616085247.5956,4.17545771598816,1616085247.59409,1616085260.79074,8.787207365036009,1616085260.78234,1616085237.52385,3.2626583576202406,1616085237.5070002,0.0469920635223389,1616085240.79131,l038.png,1616085240.7748802,low_cue,2.9179129600524902,51.051732108794,FIX,1616085243.58975,1616085243.57593,1616085246.49384,0,0,0,,,,0,0,Command Recieved: TRIGGER_AND_Response: RESULT_OK,,,1616085251.8179998,1616085251.81736,low_stim,3.7206189632415803,33.5627437810924,FIX,1616085269.5897,1616085269.5856302,1616085273.30625,1,1,2,low_cue,1616085320.40705,1616085320.40458,398.82251501083397,1,1616084921.58845,low_stim,pain,1616084921.5820599,3,8,35
1616085285.07586,1.3948135375976598,1616085285.07474,1616085290.51122,10.659452438354501,1616085290.5101,1616085310.19051,6.18544864654541,1616085310.1841,1616085273.87387,10.1990945339203,1616085273.87056,0.0671360492706299,1616085284.09037,h008.png,1616085284.07436,high_cue,3.0512309074401895,44.6725991091556,FIX,1616085286.49214,1616085286.49193,1616085289.54316,0,0,0,,,,0,0,Command Recieved: TRIGGER_AND_Response: RESULT_OK,,,1616085301.2374,1616085301.23716,high_stim,2.70332932472229,51.519801751657,FIX,1616085316.38965,1616085316.38641,1616085319.08974,6,1,2,high_cue,1616085320.40705,1616085320.40458,398.82251501083397,1,1616084921.58845,high_stim,pain,1616084921.5820599,3,8,36
1614878722.11816,0.783180475234985,1614878722.11683,1614878726.95759,7.84801459312439,1614878726.9519901,1614878743.81025,3.6916253566741903,1614878743.8083801,1614878720.0177,1.08433222770691,1614878720.01603,0.0609591007232666,1614878721.11803,h029.png,1614878721.11645,high_cue,2.3059642314910898,25.0168934781,FIX,1614878722.93396,1614878722.93381,1614878725.23977,0,0,0,,,,0,0,Command Recieved: TRIGGER_AND_Response: RESULT_OK,,,1614878734.86832,1614878734.86794,med_stim,2.7511408329009996,69.3903070624679,FIX,1614878747.52475,1614878747.50979,1614878750.26093,5,1,2,high_cue,1614879116.54321,1614879116.53286,399.312758207321,3,1614878717.22069,med_stim,pain,1614878717.2201,1,8,37
1614878754.42497,1.48760867118835,1614878754.4124,1614878759.93256,0.86884880065918,1614878759.93116,1614878769.81995,3.68176984786987,1614878769.81824,1614878751.54053,1.87235879898071,1614878751.52798,0.0489110946655273,1614878753.4135199,l036.png,1614878753.41202,low_cue,2.66790294647217,36.216184437599296,FIX,1614878755.92344,1614878755.9129698,1614878758.58087,0,0,0,,,,0,0,Command Recieved: TRIGGER_AND_Response: RESULT_OK,,,1614878760.8502,1614878760.84953,med_stim,2.57050609588623,52.572948640543395,FIX,1614878773.5237598,1614878773.51964,1614878776.09015,2,1,2,low_cue,1614879116.54321,1614879116.53286,399.312758207321,3,1614878717.22069,med_stim,pain,1614878717.2201,1,8,38
1614878781.80726,1.4938936233520501,1614878781.80612,1614878787.50983,5.491732597351071,1614878787.50828,1614878802.01524,6.08623814582825,1614878802.0137699,1614878777.54057,3.2624928951263397,1614878777.53783,0.0692799091339111,1614878780.8079998,h048.png,1614878780.80574,high_cue,3.63482713699341,34.4005762835665,FIX,1614878783.32401,1614878783.32336,1614878786.9581802,0,0,0,,,,0,0,Command Recieved: TRIGGER_AND_Response: RESULT_OK,,,1614878793.07077,1614878793.07004,low_stim,2.29094672203064,55.7995158697315,FIX,1614878808.11621,1614878808.11608,1614878810.40703,4,1,2,high_cue,1614879116.54321,1614879116.53286,399.312758207321,3,1614878717.22069,low_stim,pain,1614878717.2201,1,8,39
1614878821.70828,1.49544477462769,1614878821.7045698,1614878827.2413301,6.86001443862915,1614878827.23999,1614878843.1138,5.88733434677124,1614878843.11267,1614878812.14117,8.5660548210144,1614878812.13427,0.0548069477081299,1614878820.72222,l039.png,1614878820.72086,low_cue,,,FIX,1614878823.22373,1614878823.2218099,,0,0,0,,,,0,0,Command Recieved: TRIGGER_AND_Response: RESULT_OK,,,1614878834.15575,1614878834.15539,med_stim,2.26767897605896,38.3375228934037,FIX,1614878849.02384,1614878849.01491,1614878851.2825902,2,1,2,low_cue,1614879116.54321,1614879116.53286,399.312758207321,3,1614878717.22069,med_stim,pain,1614878717.2201,1,8,40
1614878857.22017,2.88199186325073,1614878857.21802,1614878864.1425,8.56270599365234,1614878864.1373,1614878881.71304,5.78938221931458,1614878881.7106302,1614878853.04334,3.16769433021545,1614878853.0331,0.0812239646911621,1614878856.2258,h034.png,1614878856.21764,high_cue,,,FIX,1614878860.12416,1614878860.11912,,0,0,0,,,,0,0,Command Recieved: TRIGGER_AND_Response: RESULT_OK,,,1614878872.78522,1614878872.7831,high_stim,1.9279243946075402,73.739795291688,FIX,1614878887.5241401,1614878887.51282,1614878889.44075,6,1,2,high_cue,1614879116.54321,1614879116.53286,399.312758207321,3,1614878717.22069,high_stim,pain,1614878717.2201,1,8,41
1614878908.80844,1.3957896232605,1614878908.80422,1614878914.24179,4.46039605140686,1614878914.23961,1614878927.71252,1.58862805366516,1614878927.71138,1614878891.5487401,16.2524218559265,1614878891.5476902,0.0489368438720703,1614878907.80855,l055.png,1614878907.80384,low_cue,2.26952481269836,18.2170951978248,FIX,1614878910.22193,1614878910.2214198,1614878912.49095,0,0,0,,,,0,0,Command Recieved: TRIGGER_AND_Response: RESULT_OK,,,1614878918.7500901,1614878918.74963,low_stim,2.8012280464172403,36.869897645844,FIX,1614878929.3121,1614878929.31199,1614878932.11321,1,1,2,low_cue,1614879116.54321,1614879116.53286,399.312758207321,3,1614878717.22069,low_stim,pain,1614878717.2201,1,8,42
1614878937.4161801,0.78495454788208,1614878937.41505,1614878942.23418,4.3664629459381095,1614878942.23355,1614878955.60871,5.0947334766387895,1614878955.6052802,1614878933.34179,3.0699338912963903,1614878933.3301802,0.0408010482788086,1614878936.4160001,l023.png,1614878936.41468,low_cue,,,FIX,1614878938.21583,1614878938.21536,,0,0,0,,,,0,0,Command Recieved: TRIGGER_AND_Response: RESULT_OK,,,1614878946.64188,1614878946.64146,high_stim,2.8679485321044904,53.1761970984455,FIX,1614878960.70799,1614878960.70721,1614878963.57516,3,1,2,low_cue,1614879116.54321,1614879116.53286,399.312758207321,3,1614878717.22069,high_stim,pain,1614878717.2201,1,8,43
1614878970.8122199,0.5889761447906489,1614878970.8110301,1614878975.4806,3.32054376602173,1614878975.47947,1614878987.81897,2.88253712654114,1614878987.8174698,1614878964.72599,5.074711322784419,1614878964.7254,0.0881609916687012,1614878969.81204,h022.png,1614878969.81065,high_cue,3.5181276798248304,78.6449171968598,FIX,1614878971.41162,1614878971.41126,1614878974.92939,0,0,0,,,,0,0,Command Recieved: TRIGGER_AND_Response: RESULT_OK,,,1614878978.8896801,1614878978.88895,med_stim,1.6560354232788101,32.5417535599951,FIX,1614878990.71928,1614878990.71857,1614878992.3746,5,1,2,high_cue,1614879116.54321,1614879116.53286,399.312758207321,3,1614878717.22069,med_stim,pain,1614878717.2201,1,8,44
1614878999.90888,0.59462833404541,1614878999.90538,1614879004.54238,0.859538078308105,1614879004.54047,1614879014.41225,9.88913559913635,1614879014.4108698,1614878994.74179,4.16335105895996,1614878994.73676,0.0442430973052979,1614878998.90882,h028.png,1614878998.905,high_cue,2.41914463043213,47.927347991740895,FIX,1614879000.52264,1614879000.52228,1614879002.94143,0,0,0,,,,0,0,Command Recieved: TRIGGER_AND_Response: RESULT_OK,,,1614879005.4451098,1614879005.44478,low_stim,3.00130558013916,25.0168934781,FIX,1614879024.31519,1614879024.31462,1614879027.3159301,4,1,2,high_cue,1614879116.54321,1614879116.53286,399.312758207321,3,1614878717.22069,low_stim,pain,1614878717.2201,1,8,45
1614879030.41803,2.8830780982971205,1614879030.41693,1614879037.3369,8.56379127502441,1614879037.33622,1614879054.91034,4.29047250747681,1614879054.90954,1614879028.342,1.067298412323,1614879028.33281,0.0399429798126221,1614879029.41768,l002.png,1614879029.41655,low_cue,,,FIX,1614879033.31813,1614879033.31803,,0,0,0,,,,0,0,Command Recieved: TRIGGER_AND_Response: RESULT_OK,,,1614879045.94065,1614879045.94041,high_stim,2.76789093017578,63.332268324401,FIX,1614879059.2116,1614879059.21116,1614879061.97906,3,1,2,low_cue,1614879116.54321,1614879116.53286,399.312758207321,3,1614878717.22069,high_stim,pain,1614878717.2201,1,8,46
1614879067.0155098,0.685891628265381,1614879067.0141199,1614879071.73369,0.6674401760101321,1614879071.73257,1614879081.42068,4.08044028282166,1614879081.41957,1614879063.24332,2.7707552909851096,1614879063.22935,0.037200927734375,1614879066.01508,h023.png,1614879066.01374,high_cue,3.38485288619995,67.6448195542644,FIX,1614879067.7147698,1614879067.71438,1614879071.09924,0,0,0,,,,0,0,Command Recieved: TRIGGER_AND_Response: RESULT_OK,,,1614879072.43866,1614879072.43809,high_stim,2.55418038368225,45.0,FIX,1614879085.52148,1614879085.5211198,1614879088.0753,6,1,2,high_cue,1614879116.54321,1614879116.53286,399.312758207321,3,1614878717.22069,high_stim,pain,1614878717.2201,1,8,47
1614879093.80954,2.8924181461334197,1614879093.80759,1614879100.72801,1.6731321811676,1614879100.72688,1614879111.4157698,1.08575320243835,1614879111.41426,1614879089.5422199,3.2607944011688197,1614879089.53931,0.0576369762420654,1614879092.80947,l018.png,1614879092.80721,low_cue,2.38449788093567,44.674459301340704,FIX,1614879096.7088199,1614879096.70869,1614879099.09319,0,0,0,,,,0,0,Command Recieved: TRIGGER_AND_Response: RESULT_OK,,,1614879102.45876,1614879102.45831,low_stim,2.7011282444000204,40.1286089684759,FIX,1614879112.5151,1614879112.51467,1614879115.2158,1,1,2,low_cue,1614879116.54321,1614879116.53286,399.312758207321,3,1614878717.22069,low_stim,pain,1614878717.2201,1,8,48
1614879286.3273199,1.2972848415374798,1614879286.3137698,1614879291.65005,1.7619345188140902,1614879291.6491199,1614879302.4277,4.2911908626556405,1614879302.41986,1614879278.02862,7.28442406654358,1614879278.0273,0.0595450401306152,1614879285.3312,h037.png,1614879285.33006,high_cue,,,FIX,1614879287.64311,1614879287.6309302,,0,0,0,,,,0,0,Command Recieved: TRIGGER_AND_Response: RESULT_OK,,,1614879293.47961,1614879293.4790401,med_stim,2.9550154209137003,49.548042409125394,FIX,1614879306.7267401,1614879306.7214901,1614879309.6765099,5,2,2,high_cue,1614879674.0460699,1614879674.04375,398.81264877319296,4,1614879275.23194,med_stim,pain,1614879275.2311,1,8,49
1614879312.52778,1.88736796379089,1614879312.52368,1614879318.444,2.2684633731842,1614879318.44259,1614879329.73145,1.2808585166931201,1614879329.73019,1614879310.74358,0.7714767456054691,1614879310.73968,0.0904040336608887,1614879311.52758,h007.png,1614879311.52331,high_cue,2.46891927719116,53.130102354156,FIX,1614879314.42655,1614879314.4244,1614879316.8933198,0,0,0,,,,0,0,Command Recieved: TRIGGER_AND_Response: RESULT_OK,,,1614879320.80233,1614879320.80201,low_stim,2.25104308128357,49.723111789790295,FIX,1614879331.03122,1614879331.0306802,1614879333.2817302,4,2,2,high_cue,1614879674.0460699,1614879674.04375,398.81264877319296,4,1614879275.23194,low_stim,pain,1614879275.2311,1,8,50
1614879344.6277301,1.89189291000366,1614879344.61916,1614879350.53861,3.17298793792725,1614879350.53806,1614879362.72766,8.885043382644652,1614879362.7260098,1614879335.06066,8.56227850914001,1614879335.0488698,0.0457489490509033,1614879343.6278698,l002.png,1614879343.6187801,low_cue,2.6735875606536896,46.636577041616704,FIX,1614879346.5267599,1614879346.51988,1614879349.19347,0,0,0,,,,0,0,Command Recieved: TRIGGER_AND_Response: RESULT_OK,,,1614879353.75807,1614879353.75773,med_stim,2.3177495002746604,43.53951748815639,FIX,1614879371.62956,1614879371.62938,1614879373.94712,2,2,2,low_cue,1614879674.0460699,1614879674.04375,398.81264877319296,4,1614879275.23194,med_stim,pain,1614879275.2311,1,8,51
1614879379.3280802,1.8954348564147903,1614879379.31562,1614879385.25199,3.1598567962646498,1614879385.2512,1614879397.4281,4.78858637809753,1614879397.4224699,1614879375.66524,2.6469147205352797,1614879375.6642401,0.0340969562530518,1614879378.32768,h047.png,1614879378.3152401,high_cue,,,FIX,1614879381.2332199,1614879381.23301,,0,0,0,,,,0,0,Command Recieved: TRIGGER_AND_Response: RESULT_OK,,,1614879388.4469302,1614879388.4460402,high_stim,3.58615446090698,45.1623105559367,FIX,1614879402.24117,1614879402.24096,1614879405.82711,6,2,2,high_cue,1614879674.0460699,1614879674.04375,398.81264877319296,4,1614879275.23194,high_stim,pain,1614879275.2311,1,8,52
1614879415.83058,1.08162355422974,1614879415.82943,1614879420.94907,12.063020944595301,1614879420.94803,1614879442.02814,2.8883829116821302,1614879442.02267,1614879406.39453,8.418621778488161,1614879406.39253,0.0542612075805664,1614879414.8302,h050.png,1614879414.82905,high_cue,2.50119972229004,16.5451645222102,FIX,1614879416.9300802,1614879416.92985,1614879419.43105,0,0,0,,,,0,0,Command Recieved: TRIGGER_AND_Response: RESULT_OK,,,1614879433.06639,1614879433.06595,high_stim,3.98680877685547,42.8909102627422,FIX,1614879444.9278,1614879444.92377,1614879448.91057,6,2,2,high_cue,1614879674.0460699,1614879674.04375,398.81264877319296,4,1614879275.23194,high_stim,pain,1614879275.2311,1,8,53
1614879451.92793,1.7846372127533001,1614879451.92641,1614879457.74614,3.1657700538635294,1614879457.74528,1614879469.92857,1.29449987411499,1614879469.91655,1614879449.47642,1.43565154075623,1614879449.47549,0.0506489276885986,1614879450.9281301,l042.png,1614879450.92604,low_cue,,,FIX,1614879453.72744,1614879453.7271,,0,0,0,,,,0,0,Command Recieved: TRIGGER_AND_Response: RESULT_OK,,,1614879460.9627302,1614879460.96233,high_stim,2.4843971729278596,40.249945166859604,FIX,1614879471.2339802,1614879471.2337198,1614879473.7181199,3,2,2,low_cue,1614879674.0460699,1614879674.04375,398.81264877319296,4,1614879275.23194,high_stim,pain,1614879275.2311,1,8,54
1614879479.32849,1.2909421920776398,1614879479.3201098,1614879484.66137,6.155590772628781,1614879484.65546,1614879499.82899,5.383187532424929,1614879499.8278599,1614879475.26141,3.0592489242553698,1614879475.2519,0.0668389797210693,1614879478.3285198,h021.png,1614879478.31973,high_cue,3.4901537895202597,61.9821064535454,FIX,1614879480.62747,1614879480.6206,1614879484.11075,0,0,0,,,,0,0,Command Recieved: TRIGGER_AND_Response: RESULT_OK,,,1614879490.87936,1614879490.87865,med_stim,3.86825704574585,43.215156675681,FIX,1614879505.2305,1614879505.22991,1614879509.0981698,5,2,2,high_cue,1614879674.0460699,1614879674.04375,398.81264877319296,4,1614879275.23194,med_stim,pain,1614879275.2311,1,8,55
1614879512.02842,0.995244026184082,1614879512.01581,1614879517.0518801,1.46000599861145,1614879517.05105,1614879527.5289,4.68937802314758,1614879527.5216699,1614879509.6658301,1.34623456001282,1614879509.6649199,0.0419700145721436,1614879511.0285099,h053.png,1614879511.01543,high_cue,,,FIX,1614879513.03332,1614879513.03286,,0,0,0,,,,0,0,Command Recieved: TRIGGER_AND_Response: RESULT_OK,,,1614879518.5541198,1614879518.55366,low_stim,2.48759841918945,31.0817298303779,FIX,1614879532.22772,1614879532.22345,1614879534.71105,4,2,2,high_cue,1614879674.0460699,1614879674.04375,398.81264877319296,4,1614879275.23194,low_stim,pain,1614879275.2311,1,8,56
1614879539.02872,1.18502855300903,1614879539.0260198,1614879544.2455199,1.7663903236389198,1614879544.24466,1614879555.02863,9.995649099349981,1614879555.0154,1614879536.2620301,1.75284218788147,1614879536.25831,0.0352659225463867,1614879538.02866,l019.png,1614879538.02565,low_cue,,,FIX,1614879540.22782,1614879540.22648,,0,0,0,,,,0,0,Command Recieved: TRIGGER_AND_Response: RESULT_OK,,,1614879546.0475,1614879546.04701,high_stim,1.85871648788452,51.842773412630905,FIX,1614879565.02791,1614879565.01919,1614879566.8779,3,2,2,low_cue,1614879674.0460699,1614879674.04375,398.81264877319296,4,1614879275.23194,high_stim,pain,1614879275.2311,1,8,57
1614879570.8287802,1.88966655731201,1614879570.8213902,1614879576.74525,5.37076640129089,1614879576.74029,1614879591.13024,2.88199019432068,1614879591.12906,1614879569.0453901,0.77377986907959,1614879569.03737,0.0483598709106445,1614879569.8289301,l052.png,1614879569.821,low_cue,,,FIX,1614879572.72807,1614879572.7221,,0,0,0,,,,0,0,Command Recieved: TRIGGER_AND_Response: RESULT_OK,,,1614879582.1607401,1614879582.1602,low_stim,3.48487257957458,19.160173121981302,FIX,1614879594.03036,1614879594.03016,1614879597.5150301,1,2,2,low_cue,1614879674.0460699,1614879674.04375,398.81264877319296,4,1614879275.23194,low_stim,pain,1614879275.2311,1,8,58
1614879609.2289698,1.5918173789978,1614879609.2192302,1614879614.8454401,12.073025226593002,1614879614.83803,1614879635.9302402,1.2817173004150402,1614879635.92933,1614879598.0827599,10.1294584274292,1614879598.08169,0.0470740795135498,1614879608.22914,l047.png,1614879608.21886,low_cue,,,FIX,1614879610.8283,1614879610.81984,,0,0,0,,,,0,0,Command Recieved: TRIGGER_AND_Response: RESULT_OK,,,1614879626.95933,1614879626.95879,low_stim,2.2677166461944602,34.8981235610295,FIX,1614879637.23033,1614879637.22983,1614879639.49754,1,2,2,low_cue,1614879674.0460699,1614879674.04375,398.81264877319296,4,1614879275.23194,low_stim,pain,1614879275.2311,1,8,59
1614879648.52968,0.993623495101929,1614879648.51743,1614879653.53681,1.07505941390991,1614879653.53599,1614879663.62929,6.3879108428955105,1614879663.62314,1614879641.26242,6.263145923614499,1614879641.24801,0.0417718887329102,1614879647.52915,l001.png,1614879647.51705,low_cue,,,FIX,1614879649.5285301,1614879649.5178099,,0,0,0,,,,0,0,Command Recieved: TRIGGER_AND_Response: RESULT_OK,,,1614879654.6540802,1614879654.65357,med_stim,2.6529173851013197,53.68411357605479,FIX,1614879670.02875,1614879670.02556,1614879672.6784801,2,2,2,low_cue,1614879674.0460699,1614879674.04375,398.81264877319296,4,1614879275.23194,med_stim,pain,1614879275.2311,1,8,60
