onset	duration	trial_type	trial_index	cue	stimulusintensity	rating_value	rating_glmslabel	rating_value_fillna	rating_glmslabel_fillna	rating_mouseonset	rating_mousedur	stim_file	correct_response	participant_response	response_accuracy
5.49	0.99	cue	1	low_cue	n/a	n/a	n/a	n/a	n/a	n/a	n/a	l029.png	n/a	n/a	n/a
33.79	0.99	cue	2	low_cue	n/a	n/a	n/a	n/a	n/a	n/a	n/a	l025.png	n/a	n/a	n/a
74.2	0.98	cue	3	low_cue	n/a	n/a	n/a	n/a	n/a	n/a	n/a	l039.png	n/a	n/a	n/a
103.79	0.99	cue	4	high_cue	n/a	n/a	n/a	n/a	n/a	n/a	n/a	h038.png	n/a	n/a	n/a
138.3	0.98	cue	5	high_cue	n/a	n/a	n/a	n/a	n/a	n/a	n/a	h021.png	n/a	n/a	n/a
178.09	0.99	cue	6	high_cue	n/a	n/a	n/a	n/a	n/a	n/a	n/a	h045.png	n/a	n/a	n/a
206.69	0.99	cue	7	high_cue	n/a	n/a	n/a	n/a	n/a	n/a	n/a	h012.png	n/a	n/a	n/a
241.99	0.99	cue	8	low_cue	n/a	n/a	n/a	n/a	n/a	n/a	n/a	l045.png	n/a	n/a	n/a
270.78	1.0	cue	9	high_cue	n/a	n/a	n/a	n/a	n/a	n/a	n/a	h029.png	n/a	n/a	n/a
306.5	0.98	cue	10	low_cue	n/a	n/a	n/a	n/a	n/a	n/a	n/a	l001.png	n/a	n/a	n/a
333.49	0.99	cue	11	high_cue	n/a	n/a	n/a	n/a	n/a	n/a	n/a	h036.png	n/a	n/a	n/a
372.09	0.99	cue	12	low_cue	n/a	n/a	n/a	n/a	n/a	n/a	n/a	l051.png	n/a	n/a	n/a
7.5		expectrating	1	low_cue	n/a			29.29	Strong	3.52	3.7	l029.png	n/a	n/a	n/a
36.1	2.13	expectrating	2	low_cue	n/a	8.55	Weak	8.55	Weak	0.57	1.56	l025.png	n/a	n/a	n/a
76.5	2.29	expectrating	3	low_cue	n/a	4.36	Weak	4.36	Weak	0.78	1.51	l039.png	n/a	n/a	n/a
106.61	2.97	expectrating	4	high_cue	n/a	42.37	Strong	42.37	Strong	0.77	2.2	h038.png	n/a	n/a	n/a
140.0	2.35	expectrating	5	high_cue	n/a	33.31	Strong	33.31	Strong	0.78	1.57	h021.png	n/a	n/a	n/a
179.89	2.27	expectrating	6	high_cue	n/a	36.87	Strong	36.87	Strong	0.73	1.54	h045.png	n/a	n/a	n/a
209.7	2.31	expectrating	7	high_cue	n/a	46.48	Strong	46.48	Strong	0.52	1.79	h012.png	n/a	n/a	n/a
244.69	2.37	expectrating	8	low_cue	n/a	22.23	Moderate	22.23	Moderate	0.47	1.9	l045.png	n/a	n/a	n/a
273.8	1.8	expectrating	9	high_cue	n/a	36.96	Strong	36.96	Strong	0.55	1.25	h029.png	n/a	n/a	n/a
308.8	2.46	expectrating	10	low_cue	n/a	16.04	Moderate	16.04	Moderate	0.85	1.61	l001.png	n/a	n/a	n/a
336.49	2.71	expectrating	11	high_cue	n/a	41.87	Strong	41.87	Strong	1.2	1.51	h036.png	n/a	n/a	n/a
375.09	2.14	expectrating	12	low_cue	n/a	20.76	Moderate	20.76	Moderate	0.58	1.55	l051.png	n/a	n/a	n/a
18.2	6.99	stimulus	1	low_cue	med_stim	n/a	n/a	n/a	n/a	n/a	n/a	43_100_R.jpg	diff		False
49.59	7.01	stimulus	2	low_cue	low_stim	n/a	n/a	n/a	n/a	n/a	n/a	48_50_R.jpg	diff	diff	True
87.29	7.01	stimulus	3	low_cue	high_stim	n/a	n/a	n/a	n/a	n/a	n/a	33_150.jpg	same	diff	False
115.2	6.99	stimulus	4	high_cue	low_stim	n/a	n/a	n/a	n/a	n/a	n/a	33_50_R.jpg	diff	diff	True
155.0	7.01	stimulus	5	high_cue	med_stim	n/a	n/a	n/a	n/a	n/a	n/a	22_100_R.jpg	diff	diff	True
188.5	7.01	stimulus	6	high_cue	high_stim	n/a	n/a	n/a	n/a	n/a	n/a	45_150.jpg	same	same	True
219.29	7.01	stimulus	7	high_cue	low_stim	n/a	n/a	n/a	n/a	n/a	n/a	34_50_R.jpg	diff	diff	True
253.6	6.99	stimulus	8	low_cue	high_stim	n/a	n/a	n/a	n/a	n/a	n/a	17_150.jpg	same		False
281.69	7.01	stimulus	9	high_cue	high_stim	n/a	n/a	n/a	n/a	n/a	n/a	43_150.jpg	same	diff	False
318.39	7.01	stimulus	10	low_cue	med_stim	n/a	n/a	n/a	n/a	n/a	n/a	44_100.jpg	same	same	True
348.8	6.99	stimulus	11	high_cue	med_stim	n/a	n/a	n/a	n/a	n/a	n/a	44_100_R.jpg	diff	diff	True
385.7	6.99	stimulus	12	low_cue	low_stim	n/a	n/a	n/a	n/a	n/a	n/a	43_50_R.jpg	diff	diff	True
28.09		outcomerating	1	low_cue	med_stim			11.45	Moderate	0.83	3.1	task-cognitive_scale.png	n/a	n/a	n/a
58.5	3.39	outcomerating	2	low_cue	low_stim	10.86	Moderate	10.86	Moderate	1.92	1.47	task-cognitive_scale.png	n/a	n/a	n/a
96.4	2.62	outcomerating	3	low_cue	high_stim	16.77	Moderate	16.77	Moderate	0.68	1.94	task-cognitive_scale.png	n/a	n/a	n/a
127.39		outcomerating	4	high_cue	low_stim			15.32	Moderate	0.77	2.35	task-cognitive_scale.png	n/a	n/a	n/a
167.19	3.39	outcomerating	5	high_cue	med_stim	10.14	Moderate	10.14	Moderate	0.45	2.94	task-cognitive_scale.png	n/a	n/a	n/a
200.71		outcomerating	6	high_cue	high_stim			17.34	Moderate	0.62	3.07	task-cognitive_scale.png	n/a	n/a	n/a
235.8		outcomerating	7	high_cue	low_stim			29.14	Strong	0.73	1.58	task-cognitive_scale.png	n/a	n/a	n/a
261.59	3.68	outcomerating	8	low_cue	high_stim	24.48	Moderate	24.48	Moderate	0.67	3.01	task-cognitive_scale.png	n/a	n/a	n/a
300.49	3.32	outcomerating	9	high_cue	high_stim	39.45	Strong	39.45	Strong	0.52	2.8	task-cognitive_scale.png	n/a	n/a	n/a
327.3		outcomerating	10	low_cue	med_stim			15.5	Moderate	0.57	2.68	task-cognitive_scale.png	n/a	n/a	n/a
361.2	1.59	outcomerating	11	high_cue	med_stim	32.47	Strong	32.47	Strong	0.48	1.1	task-cognitive_scale.png	n/a	n/a	n/a
394.71	2.79	outcomerating	12	low_cue	low_stim	22.44	Moderate	22.44	Moderate	0.68	2.11	task-cognitive_scale.png	n/a	n/a	n/a
