onset	duration	trial_type	trial_index	cue	stimulusintensity	rating_value	rating_glmslabel	rating_value_fillna	rating_glmslabel_fillna	rating_mouseonset	rating_mousedur	stim_file
4.11	0.98	cue	1	high_cue	n/a	n/a	n/a	n/a	n/a	n/a	n/a	h012.png
33.5	0.99	cue	2	low_cue	n/a	n/a	n/a	n/a	n/a	n/a	n/a	l043.png
71.6	0.98	cue	3	high_cue	n/a	n/a	n/a	n/a	n/a	n/a	n/a	h017.png
105.6	0.99	cue	4	high_cue	n/a	n/a	n/a	n/a	n/a	n/a	n/a	h033.png
132.81	0.98	cue	5	high_cue	n/a	n/a	n/a	n/a	n/a	n/a	n/a	h026.png
163.3	0.99	cue	6	high_cue	n/a	n/a	n/a	n/a	n/a	n/a	n/a	h021.png
196.9	0.99	cue	7	low_cue	n/a	n/a	n/a	n/a	n/a	n/a	n/a	l008.png
231.39	1.0	cue	8	low_cue	n/a	n/a	n/a	n/a	n/a	n/a	n/a	l025.png
270.39	0.99	cue	9	high_cue	n/a	n/a	n/a	n/a	n/a	n/a	n/a	h007.png
297.7	0.99	cue	10	low_cue	n/a	n/a	n/a	n/a	n/a	n/a	n/a	l024.png
327.19	1.0	cue	11	low_cue	n/a	n/a	n/a	n/a	n/a	n/a	n/a	l041.png
372.6	0.99	cue	12	low_cue	n/a	n/a	n/a	n/a	n/a	n/a	n/a	l030.png
7.25	2.9	expectrating	1	high_cue	n/a	41.58	Strong	41.58	Strong	0.88	2.02	h012.png
36.61	2.95	expectrating	2	low_cue	n/a	20.39	Moderate	20.39	Moderate	0.7	2.25	l043.png
73.6	2.99	expectrating	3	high_cue	n/a	55.45	Strong	55.45	Strong	0.82	2.17	h017.png
108.7	3.86	expectrating	4	high_cue	n/a	55.93	Strong	55.93	Strong	0.7	3.16	h033.png
135.91	2.67	expectrating	5	high_cue	n/a	71.34	Very Strong	71.34	Very Strong	0.85	1.82	h026.png
165.3	2.95	expectrating	6	high_cue	n/a	66.41	Very Strong	66.41	Very Strong	0.65	2.3	h021.png
199.3	2.81	expectrating	7	low_cue	n/a	5.59	Weak	5.59	Weak	0.25	2.56	l008.png
234.29	2.44	expectrating	8	low_cue	n/a	10.3	Moderate	10.3	Moderate	0.58	1.85	l025.png
272.19	2.47	expectrating	9	high_cue	n/a	49.72	Strong	49.72	Strong	0.78	1.69	h007.png
300.2	3.34	expectrating	10	low_cue	n/a	40.6	Strong	40.6	Strong	0.85	2.49	l024.png
329.09	2.53	expectrating	11	low_cue	n/a	6.11	Weak	6.11	Weak	0.8	1.73	l041.png
374.6	2.53	expectrating	12	low_cue	n/a	5.8	Weak	5.8	Weak	0.62	1.91	l030.png
14.49	7.0	stimulus	1	high_cue	med_stim	n/a	n/a	n/a	n/a	n/a	n/a	jy115t1aeaff_M.mp4
49.49	7.02	stimulus	2	low_cue	low_stim	n/a	n/a	n/a	n/a	n/a	n/a	jy115t1aaunaff_L.mp4
86.49	7.01	stimulus	3	high_cue	low_stim	n/a	n/a	n/a	n/a	n/a	n/a	dr052t1aeunaff_L.mp4
119.89	7.01	stimulus	4	high_cue	high_stim	n/a	n/a	n/a	n/a	n/a	n/a	jh123t1aeaff_H.mp4
143.19	7.01	stimulus	5	high_cue	low_stim	n/a	n/a	n/a	n/a	n/a	n/a	mg066t2aeunaff_L.mp4
176.49	7.01	stimulus	6	high_cue	med_stim	n/a	n/a	n/a	n/a	n/a	n/a	tv095t2afaff_M.mp4
207.89	7.0	stimulus	7	low_cue	high_stim	n/a	n/a	n/a	n/a	n/a	n/a	dr052t1aiaff_H.mp4
242.89	7.0	stimulus	8	low_cue	med_stim	n/a	n/a	n/a	n/a	n/a	n/a	aa048t2afunaff_M.mp4
280.79	7.0	stimulus	9	high_cue	high_stim	n/a	n/a	n/a	n/a	n/a	n/a	jy115t2aaaff_H.mp4
308.29	7.01	stimulus	10	low_cue	med_stim	n/a	n/a	n/a	n/a	n/a	n/a	mg066t2aaunaff_M.mp4
346.59	7.01	stimulus	11	low_cue	low_stim	n/a	n/a	n/a	n/a	n/a	n/a	th108t1aaunaff_L.mp4
386.39	7.01	stimulus	12	low_cue	high_stim	n/a	n/a	n/a	n/a	n/a	n/a	th108t1aeaff_H.mp4
23.71	3.12	outcomerating	1	high_cue	med_stim	34.52	Strong	34.52	Strong	0.42	2.71	task-vicarious_scale.png
62.41	3.5	outcomerating	2	low_cue	low_stim	1.85	Barely detectable	1.85	Barely detectable	0.75	2.75	task-vicarious_scale.png
97.11	3.8	outcomerating	3	high_cue	low_stim	42.06	Strong	42.06	Strong	0.73	3.07	task-vicarious_scale.png
127.5	2.42	outcomerating	4	high_cue	high_stim	62.71	Strong	62.71	Strong	0.57	1.85	task-vicarious_scale.png
152.41	2.79	outcomerating	5	high_cue	low_stim	35.86	Strong	35.86	Strong	0.62	2.18	task-vicarious_scale.png
184.5	3.52	outcomerating	6	high_cue	med_stim	55.48	Strong	55.48	Strong	0.6	2.92	task-vicarious_scale.png
224.4	3.49	outcomerating	7	low_cue	high_stim	60.77	Strong	60.77	Strong	0.62	2.87	task-vicarious_scale.png
257.01	2.4	outcomerating	8	low_cue	med_stim	5.59	Weak	5.59	Weak	0.72	1.69	task-vicarious_scale.png
292.41	2.71	outcomerating	9	high_cue	high_stim	72.29	Very Strong	72.29	Very Strong	0.57	2.14	task-vicarious_scale.png
318.02	2.87	outcomerating	10	low_cue	med_stim	18.51	Moderate	18.51	Moderate	0.73	2.14	task-vicarious_scale.png
367.01	3.24	outcomerating	11	low_cue	low_stim	9.58	Weak	9.58	Weak	0.42	2.82	task-vicarious_scale.png
394.4		outcomerating	12	low_cue	high_stim			59.43	Strong	0.48	3.5	task-vicarious_scale.png
