onset	duration	trial_type	trial_index	cue	stimulusintensity	rating_value	rating_glmslabel	rating_value_fillna	rating_glmslabel_fillna	rating_mouseonset	rating_mousedur	stim_file
9.78	0.99	cue	1	high_cue	n/a	n/a	n/a	n/a	n/a	n/a	n/a	h025.png
41.49	0.98	cue	2	high_cue	n/a	n/a	n/a	n/a	n/a	n/a	n/a	h050.png
67.39	0.99	cue	3	low_cue	n/a	n/a	n/a	n/a	n/a	n/a	n/a	l047.png
96.78	0.99	cue	4	high_cue	n/a	n/a	n/a	n/a	n/a	n/a	n/a	h012.png
128.39	0.98	cue	5	high_cue	n/a	n/a	n/a	n/a	n/a	n/a	n/a	h045.png
170.99	0.98	cue	6	low_cue	n/a	n/a	n/a	n/a	n/a	n/a	n/a	l030.png
198.29	0.99	cue	7	low_cue	n/a	n/a	n/a	n/a	n/a	n/a	n/a	l032.png
234.88	0.99	cue	8	low_cue	n/a	n/a	n/a	n/a	n/a	n/a	n/a	l033.png
262.19	0.98	cue	9	high_cue	n/a	n/a	n/a	n/a	n/a	n/a	n/a	h001.png
291.09	0.99	cue	10	low_cue	n/a	n/a	n/a	n/a	n/a	n/a	n/a	l023.png
336.59	0.99	cue	11	high_cue	n/a	n/a	n/a	n/a	n/a	n/a	n/a	h023.png
371.58	0.99	cue	12	low_cue	n/a	n/a	n/a	n/a	n/a	n/a	n/a	l035.png
12.52	1.23	expectrating	1	high_cue	n/a	34.5	Strong	34.5	Strong	0.45	0.78	h025.png
42.99	1.1	expectrating	2	high_cue	n/a	31.36	Strong	31.36	Strong	0.43	0.67	h050.png
69.5	1.46	expectrating	3	low_cue	n/a	8.1	Weak	8.1	Weak	0.47	0.99	l047.png
100.7	1.05	expectrating	4	high_cue	n/a	46.95	Strong	46.95	Strong	0.33	0.72	h012.png
132.29	1.7	expectrating	5	high_cue	n/a	78.69	Very Strong	78.69	Very Strong	0.32	1.38	h045.png
174.89	1.62	expectrating	6	low_cue	n/a	5.05	Weak	5.05	Weak	0.33	1.28	l030.png
199.79	1.53	expectrating	7	low_cue	n/a	16.68	Moderate	16.68	Moderate	0.4	1.13	l032.png
236.98	1.38	expectrating	8	low_cue	n/a	4.23	Weak	4.23	Weak	0.37	1.02	l033.png
264.89	1.02	expectrating	9	high_cue	n/a	34.01	Strong	34.01	Strong	0.3	0.72	h001.png
293.29	1.51	expectrating	10	low_cue	n/a	8.89	Weak	8.89	Weak	0.37	1.14	l023.png
338.29	1.79	expectrating	11	high_cue	n/a	58.42	Strong	58.42	Strong	0.52	1.27	h023.png
373.38	1.18	expectrating	12	low_cue	n/a	19.31	Moderate	19.31	Moderate	0.33	0.85	l035.png
24.18	7.01	stimulus	1	high_cue	med_stim	n/a	n/a	n/a	n/a	n/a	n/a	ak064t1aiaff_M.mp4
51.08	7.0	stimulus	2	high_cue	high_stim	n/a	n/a	n/a	n/a	n/a	n/a	dn124t1aiaff_H.mp4
77.68	7.01	stimulus	3	low_cue	high_stim	n/a	n/a	n/a	n/a	n/a	n/a	dr052t1aiaff_H.mp4
110.88	7.01	stimulus	4	high_cue	low_stim	n/a	n/a	n/a	n/a	n/a	n/a	jh123t1aaunaff_L.mp4
146.98	7.0	stimulus	5	high_cue	med_stim	n/a	n/a	n/a	n/a	n/a	n/a	kz120t2aeaff_M.mp4
181.78	7.0	stimulus	6	low_cue	low_stim	n/a	n/a	n/a	n/a	n/a	n/a	dr052t1aeunaff_L.mp4
210.08	7.01	stimulus	7	low_cue	med_stim	n/a	n/a	n/a	n/a	n/a	n/a	dr052t2aaaff_M.mp4
246.28	7.01	stimulus	8	low_cue	med_stim	n/a	n/a	n/a	n/a	n/a	n/a	jh123t2aaaff_M.mp4
274.18	7.0	stimulus	9	high_cue	high_stim	n/a	n/a	n/a	n/a	n/a	n/a	jh123t1aeaff_H.mp4
307.98	7.0	stimulus	10	low_cue	low_stim	n/a	n/a	n/a	n/a	n/a	n/a	dn124t1aaunaff_L.mp4
353.98	7.0	stimulus	11	high_cue	low_stim	n/a	n/a	n/a	n/a	n/a	n/a	aa048t2aaunaff_L.mp4
380.28	7.01	stimulus	12	low_cue	high_stim	n/a	n/a	n/a	n/a	n/a	n/a	ll042t1aiaff_H.mp4
32.99	1.47	outcomerating	1	high_cue	med_stim	13.31	Moderate	13.31	Moderate	0.55	0.92	task-vicarious_scale.png
59.5	1.68	outcomerating	2	high_cue	high_stim	68.64	Very Strong	68.64	Very Strong	0.47	1.22	task-vicarious_scale.png
87.49	1.87	outcomerating	3	low_cue	high_stim	46.68	Strong	46.68	Strong	0.45	1.42	task-vicarious_scale.png
119.29	1.71	outcomerating	4	high_cue	low_stim	20.39	Moderate	20.39	Moderate	0.48	1.23	task-vicarious_scale.png
156.8	2.66	outcomerating	5	high_cue	med_stim	32.22	Strong	32.22	Strong	0.4	2.26	task-vicarious_scale.png
191.7	1.42	outcomerating	6	low_cue	low_stim	20.99	Moderate	20.99	Moderate	0.43	0.98	task-vicarious_scale.png
228.9	1.23	outcomerating	7	low_cue	med_stim	42.07	Strong	42.07	Strong	0.48	0.75	task-vicarious_scale.png
256.19	1.55	outcomerating	8	low_cue	med_stim	9.27	Weak	9.27	Weak	0.4	1.15	task-vicarious_scale.png
285.8	1.67	outcomerating	9	high_cue	high_stim	45.16	Strong	45.16	Strong	0.53	1.13	task-vicarious_scale.png
323.0	1.67	outcomerating	10	low_cue	low_stim	17.27	Moderate	17.27	Moderate	0.45	1.22	task-vicarious_scale.png
367.1	2.33	outcomerating	11	high_cue	low_stim	35.89	Strong	35.89	Strong	0.48	1.85	task-vicarious_scale.png
394.79	2.0	outcomerating	12	low_cue	high_stim	52.67	Strong	52.67	Strong	0.55	1.45	task-vicarious_scale.png
