onset	duration	trial_type	trial_index	cue	stimulusintensity	rating_value	rating_glmslabel	rating_value_fillna	rating_glmslabel_fillna	rating_mouseonset	rating_mousedur	stim_file
4.99	0.99	cue	1	low_cue	n/a	n/a	n/a	n/a	n/a	n/a	n/a	l049.png
37.4	0.98	cue	2	high_cue	n/a	n/a	n/a	n/a	n/a	n/a	n/a	h045.png
70.69	0.99	cue	3	low_cue	n/a	n/a	n/a	n/a	n/a	n/a	n/a	l034.png
100.19	0.99	cue	4	high_cue	n/a	n/a	n/a	n/a	n/a	n/a	n/a	h047.png
132.58	1.0	cue	5	low_cue	n/a	n/a	n/a	n/a	n/a	n/a	n/a	l022.png
165.3	0.98	cue	6	high_cue	n/a	n/a	n/a	n/a	n/a	n/a	n/a	h040.png
199.39	0.99	cue	7	low_cue	n/a	n/a	n/a	n/a	n/a	n/a	n/a	l007.png
236.39	0.99	cue	8	low_cue	n/a	n/a	n/a	n/a	n/a	n/a	n/a	l001.png
266.48	1.0	cue	9	high_cue	n/a	n/a	n/a	n/a	n/a	n/a	n/a	h042.png
304.5	0.98	cue	10	high_cue	n/a	n/a	n/a	n/a	n/a	n/a	n/a	h024.png
335.89	0.99	cue	11	high_cue	n/a	n/a	n/a	n/a	n/a	n/a	n/a	h046.png
371.19	0.99	cue	12	low_cue	n/a	n/a	n/a	n/a	n/a	n/a	n/a	l043.png
7.6	1.89	expectrating	1	low_cue	n/a	7.87	Weak	7.87	Weak	0.8	1.09	l049.png
39.7	1.65	expectrating	2	high_cue	n/a	67.86	Very Strong	67.86	Very Strong	0.48	1.17	h045.png
72.99	2.25	expectrating	3	low_cue	n/a	12.3	Moderate	12.3	Moderate	0.53	1.72	l034.png
102.79	1.69	expectrating	4	high_cue	n/a	59.43	Strong	59.43	Strong	0.38	1.31	h047.png
135.2	1.65	expectrating	5	low_cue	n/a	5.34	Weak	5.34	Weak	0.45	1.2	l022.png
167.6	1.48	expectrating	6	high_cue	n/a	63.13	Strong	63.13	Strong	0.4	1.08	h040.png
201.79	1.49	expectrating	7	low_cue	n/a	0.0		0.0		0.18	1.3	l007.png
239.09	2.11	expectrating	8	low_cue	n/a	0.23	No sensation	0.23	No sensation	0.5	1.61	l001.png
269.7	1.55	expectrating	9	high_cue	n/a	45.51	Strong	45.51	Strong	0.43	1.12	h042.png
307.4	1.68	expectrating	10	high_cue	n/a	60.65	Strong	60.65	Strong	0.47	1.22	h024.png
338.29	1.74	expectrating	11	high_cue	n/a	97.47	Very Strong	97.47	Very Strong	0.7	1.04	h046.png
373.09	1.46	expectrating	12	low_cue	n/a	12.75	Moderate	12.75	Moderate	0.62	0.84	l043.png
18.78	7.01	stimulus	1	low_cue	high_stim	n/a	n/a	n/a	n/a	n/a	n/a	ll042t1aiaff_H.mp4
51.98	7.01	stimulus	2	high_cue	med_stim	n/a	n/a	n/a	n/a	n/a	n/a	jh043t2aeunaff_M.mp4
79.88	7.0	stimulus	3	low_cue	low_stim	n/a	n/a	n/a	n/a	n/a	n/a	nm106t1aaunaff_L.mp4
110.18	7.01	stimulus	4	high_cue	low_stim	n/a	n/a	n/a	n/a	n/a	n/a	ak064t1afunaff_L.mp4
147.48	7.01	stimulus	5	low_cue	med_stim	n/a	n/a	n/a	n/a	n/a	n/a	hs107t2aaaff_M.mp4
179.78	7.01	stimulus	6	high_cue	high_stim	n/a	n/a	n/a	n/a	n/a	n/a	gf097t2aaunaff_H.mp4
214.08	7.0	stimulus	7	low_cue	low_stim	n/a	n/a	n/a	n/a	n/a	n/a	jh043t2aaunaff_L.mp4
247.38	7.01	stimulus	8	low_cue	high_stim	n/a	n/a	n/a	n/a	n/a	n/a	dn124t1aiaff_H.mp4
280.18	7.01	stimulus	9	high_cue	high_stim	n/a	n/a	n/a	n/a	n/a	n/a	ak064t1aaaff_H.mp4
319.58	7.01	stimulus	10	high_cue	med_stim	n/a	n/a	n/a	n/a	n/a	n/a	nm106t2aaunaff_M.mp4
346.58	7.0	stimulus	11	high_cue	low_stim	n/a	n/a	n/a	n/a	n/a	n/a	hs107t2aeunaff_L.mp4
385.18	7.02	stimulus	12	low_cue	med_stim	n/a	n/a	n/a	n/a	n/a	n/a	dn124t1aeunaff_M.mp4
28.8	1.95	outcomerating	1	low_cue	high_stim	55.93	Strong	55.93	Strong	0.42	1.54	task-vicarious_scale.png
65.51	1.82	outcomerating	2	high_cue	med_stim	52.99	Strong	52.99	Strong	0.52	1.3	task-vicarious_scale.png
88.3	2.45	outcomerating	3	low_cue	low_stim	15.6	Moderate	15.6	Moderate	0.55	1.9	task-vicarious_scale.png
123.7	2.6	outcomerating	4	high_cue	low_stim	26.87	Moderate	26.87	Moderate	0.5	2.1	task-vicarious_scale.png
156.39	1.85	outcomerating	5	low_cue	med_stim	96.01	Very Strong	96.01	Very Strong	0.37	1.49	task-vicarious_scale.png
190.61	2.01	outcomerating	6	high_cue	high_stim	34.09	Strong	34.09	Strong	0.4	1.61	task-vicarious_scale.png
231.0	1.87	outcomerating	7	low_cue	low_stim	5.55	Weak	5.55	Weak	0.6	1.27	task-vicarious_scale.png
261.2	2.57	outcomerating	8	low_cue	high_stim	58.29	Strong	58.29	Strong	0.85	1.72	task-vicarious_scale.png
290.71	1.94	outcomerating	9	high_cue	high_stim	99.0	Strongest sensation of any kind	99.0	Strongest sensation of any kind	0.68	1.25	task-vicarious_scale.png
329.71	3.01	outcomerating	10	high_cue	med_stim	16.77	Moderate	16.77	Moderate	1.68	1.32	task-vicarious_scale.png
358.3	2.3	outcomerating	11	high_cue	low_stim	36.42	Strong	36.42	Strong	0.88	1.42	task-vicarious_scale.png
394.9	2.23	outcomerating	12	low_cue	med_stim	2.32	Barely detectable	2.32	Barely detectable	0.78	1.45	task-vicarious_scale.png
