onset	duration	trial_type	trial_index	cue	stimulusintensity	rating_value	rating_glmslabel	rating_value_fillna	rating_glmslabel_fillna	rating_mouseonset	rating_mousedur	stim_file	onset_ttl1	onset_ttl2	onset_ttl3	onset_ttl4	stimulus_delivery_success
13.4	1.0	cue	1	low_cue	n/a	n/a	n/a	n/a	n/a	n/a	n/a	l049.png	n/a	n/a	n/a	n/a	n/a
43.0	1.0	cue	2	low_cue	n/a	n/a	n/a	n/a	n/a	n/a	n/a	l032.png	n/a	n/a	n/a	n/a	n/a
78.69	1.0	cue	3	high_cue	n/a	n/a	n/a	n/a	n/a	n/a	n/a	h030.png	n/a	n/a	n/a	n/a	n/a
113.91	0.98	cue	4	low_cue	n/a	n/a	n/a	n/a	n/a	n/a	n/a	l004.png	n/a	n/a	n/a	n/a	n/a
151.7	1.0	cue	5	high_cue	n/a	n/a	n/a	n/a	n/a	n/a	n/a	h049.png	n/a	n/a	n/a	n/a	n/a
178.8	1.0	cue	6	low_cue	n/a	n/a	n/a	n/a	n/a	n/a	n/a	l024.png	n/a	n/a	n/a	n/a	n/a
207.19	1.0	cue	7	low_cue	n/a	n/a	n/a	n/a	n/a	n/a	n/a	l050.png	n/a	n/a	n/a	n/a	n/a
237.6	1.0	cue	8	high_cue	n/a	n/a	n/a	n/a	n/a	n/a	n/a	h047.png	n/a	n/a	n/a	n/a	n/a
268.3	1.0	cue	9	high_cue	n/a	n/a	n/a	n/a	n/a	n/a	n/a	h054.png	n/a	n/a	n/a	n/a	n/a
300.09	1.0	cue	10	high_cue	n/a	n/a	n/a	n/a	n/a	n/a	n/a	h027.png	n/a	n/a	n/a	n/a	n/a
333.61	1.0	cue	11	high_cue	n/a	n/a	n/a	n/a	n/a	n/a	n/a	h046.png	n/a	n/a	n/a	n/a	n/a
367.0	1.0	cue	12	low_cue	n/a	n/a	n/a	n/a	n/a	n/a	n/a	l015.png	n/a	n/a	n/a	n/a	n/a
15.22	2.41	expectrating	1	low_cue	n/a	21.1	Moderate	21.1	Moderate	0.4	2.01	l049.png	n/a	n/a	n/a	n/a	n/a
46.0	1.68	expectrating	2	low_cue	n/a	42.2	Strong	42.2	Strong	0.3	1.38	l032.png	n/a	n/a	n/a	n/a	n/a
81.71	1.52	expectrating	3	high_cue	n/a	80.46	Very Strong	80.46	Very Strong	0.45	1.07	h030.png	n/a	n/a	n/a	n/a	n/a
115.81	1.84	expectrating	4	low_cue	n/a	19.31	Moderate	19.31	Moderate	0.38	1.45	l004.png	n/a	n/a	n/a	n/a	n/a
153.4	1.4	expectrating	5	high_cue	n/a	110.48	Strongest sensation of any kind	110.48	Strongest sensation of any kind	0.5	0.9	h049.png	n/a	n/a	n/a	n/a	n/a
181.9	1.66	expectrating	6	low_cue	n/a	28.75	Moderate	28.75	Moderate	0.48	1.18	l024.png	n/a	n/a	n/a	n/a	n/a
210.21	1.57	expectrating	7	low_cue	n/a	20.04	Moderate	20.04	Moderate	0.37	1.2	l050.png	n/a	n/a	n/a	n/a	n/a
239.3	1.91	expectrating	8	high_cue	n/a	115.73	Strongest sensation of any kind	115.73	Strongest sensation of any kind	0.63	1.27	h047.png	n/a	n/a	n/a	n/a	n/a
271.3	1.43	expectrating	9	high_cue	n/a	95.32	Very Strong	95.32	Very Strong	0.43	0.99	h054.png	n/a	n/a	n/a	n/a	n/a
302.91	1.43	expectrating	10	high_cue	n/a	122.22	Strongest sensation of any kind	122.22	Strongest sensation of any kind	0.35	1.08	h027.png	n/a	n/a	n/a	n/a	n/a
336.51	1.52	expectrating	11	high_cue	n/a	114.79	Strongest sensation of any kind	114.79	Strongest sensation of any kind	0.43	1.09	h046.png	n/a	n/a	n/a	n/a	n/a
368.9	2.66	expectrating	12	low_cue	n/a	13.53	Moderate	13.53	Moderate	0.93	1.72	l015.png	n/a	n/a	n/a	n/a	n/a
23.96	11.47	stimulus	1	low_cue	low_stim	n/a	n/a	n/a	n/a	n/a	n/a	48c	23.56	26.94	31.94	35.04	success
54.75	11.93	stimulus	2	low_cue	med_stim	n/a	n/a	n/a	n/a	n/a	n/a	49c	54.36	57.99	62.99	66.29	success
86.55	11.93	stimulus	3	high_cue	med_stim	n/a	n/a	n/a	n/a	n/a	n/a	49c	86.16	89.79	94.79	98.09	success
123.23	12.33	stimulus	4	low_cue	high_stim	n/a	n/a	n/a	n/a	n/a	n/a	50c	122.84	126.7	131.7	135.17	success
159.94	11.91	stimulus	5	high_cue	med_stim	n/a	n/a	n/a	n/a	n/a	n/a	49c	159.55	163.14	168.14	171.46	success
188.15	12.31	stimulus	6	low_cue	high_stim	n/a	n/a	n/a	n/a	n/a	n/a	50c	187.77	191.58	196.58	200.08	success
219.53	11.49	stimulus	7	low_cue	low_stim	n/a	n/a	n/a	n/a	n/a	n/a	48c	219.14	222.51	227.51	230.63	success
248.22	12.32	stimulus	8	high_cue	high_stim	n/a	n/a	n/a	n/a	n/a	n/a	50c	247.84	251.69	256.69	260.16	success
277.53	12.33	stimulus	9	high_cue	high_stim	n/a	n/a	n/a	n/a	n/a	n/a	50c	277.14	280.95	285.96	289.47	success
317.53	11.52	stimulus	10	high_cue	low_stim	n/a	n/a	n/a	n/a	n/a	n/a	48c	317.15	320.51	325.51	328.67	success
345.42	11.47	stimulus	11	high_cue	low_stim	n/a	n/a	n/a	n/a	n/a	n/a	48c	345.04	348.38	353.38	356.51	success
380.53	11.9	stimulus	12	low_cue	med_stim	n/a	n/a	n/a	n/a	n/a	n/a	49c	380.14	383.75	388.75	392.04	success
36.91	2.32	outcomerating	1	low_cue	low_stim	67.56	Very Strong	67.56	Very Strong	0.55	1.77	task-pain_scale.png	n/a	n/a	n/a	n/a	success
70.21	2.6	outcomerating	2	low_cue	med_stim	81.38	Very Strong	81.38	Very Strong	0.45	2.15	task-pain_scale.png	n/a	n/a	n/a	n/a	success
100.0	1.89	outcomerating	3	high_cue	med_stim	89.54	Very Strong	89.54	Very Strong	0.55	1.34	task-pain_scale.png	n/a	n/a	n/a	n/a	success
137.1	2.37	outcomerating	4	low_cue	high_stim	101.13	Strongest sensation of any kind	101.13	Strongest sensation of any kind	0.5	1.87	task-pain_scale.png	n/a	n/a	n/a	n/a	success
173.11	1.55	outcomerating	5	high_cue	med_stim	69.47	Very Strong	69.47	Very Strong	0.5	1.05	task-pain_scale.png	n/a	n/a	n/a	n/a	success
201.91	2.22	outcomerating	6	low_cue	high_stim	111.32	Strongest sensation of any kind	111.32	Strongest sensation of any kind	0.55	1.67	task-pain_scale.png	n/a	n/a	n/a	n/a	success
232.7	2.96	outcomerating	7	low_cue	low_stim	21.8	Moderate	21.8	Moderate	0.62	2.34	task-pain_scale.png	n/a	n/a	n/a	n/a	success
260.39	1.6	outcomerating	8	high_cue	high_stim	116.87	Strongest sensation of any kind	116.87	Strongest sensation of any kind	0.5	1.1	task-pain_scale.png	n/a	n/a	n/a	n/a	success
292.21	2.4	outcomerating	9	high_cue	high_stim	101.85	Strongest sensation of any kind	101.85	Strongest sensation of any kind	0.47	1.94	task-pain_scale.png	n/a	n/a	n/a	n/a	success
328.7	1.86	outcomerating	10	high_cue	low_stim	32.03	Strong	32.03	Strong	0.7	1.16	task-pain_scale.png	n/a	n/a	n/a	n/a	success
359.4	2.15	outcomerating	11	high_cue	low_stim	28.85	Moderate	28.85	Moderate	0.45	1.7	task-pain_scale.png	n/a	n/a	n/a	n/a	success
394.49	2.23	outcomerating	12	low_cue	med_stim	60.77	Strong	60.77	Strong	0.83	1.4	task-pain_scale.png	n/a	n/a	n/a	n/a	success
