onset	duration	trial_type	trial_index	cue	stimulusintensity	rating_value	rating_glmslabel	rating_value_fillna	rating_glmslabel_fillna	rating_mouseonset	rating_mousedur	stim_file
5.69	0.98	cue	1	low_cue	n/a	n/a	n/a	n/a	n/a	n/a	n/a	l004.png
33.39	0.99	cue	2	low_cue	n/a	n/a	n/a	n/a	n/a	n/a	n/a	l029.png
71.08	0.99	cue	3	low_cue	n/a	n/a	n/a	n/a	n/a	n/a	n/a	l043.png
100.68	0.99	cue	4	high_cue	n/a	n/a	n/a	n/a	n/a	n/a	n/a	h017.png
135.79	0.98	cue	5	high_cue	n/a	n/a	n/a	n/a	n/a	n/a	n/a	h040.png
170.59	0.98	cue	6	high_cue	n/a	n/a	n/a	n/a	n/a	n/a	n/a	h018.png
196.88	0.99	cue	7	high_cue	n/a	n/a	n/a	n/a	n/a	n/a	n/a	h024.png
236.98	0.99	cue	8	low_cue	n/a	n/a	n/a	n/a	n/a	n/a	n/a	l002.png
268.29	0.98	cue	9	high_cue	n/a	n/a	n/a	n/a	n/a	n/a	n/a	h046.png
301.89	0.99	cue	10	low_cue	n/a	n/a	n/a	n/a	n/a	n/a	n/a	l008.png
333.88	0.99	cue	11	high_cue	n/a	n/a	n/a	n/a	n/a	n/a	n/a	h056.png
372.48	0.99	cue	12	low_cue	n/a	n/a	n/a	n/a	n/a	n/a	n/a	l032.png
7.69	3.28	expectrating	1	low_cue	n/a	0.0		0.0		0.45	2.83	l004.png
35.69	3.09	expectrating	2	low_cue	n/a	8.75	Weak	8.75	Weak	0.87	2.22	l029.png
73.38	1.65	expectrating	3	low_cue	n/a	3.22	Weak	3.22	Weak	0.55	1.1	l043.png
103.49	3.18	expectrating	4	high_cue	n/a	91.15	Very Strong	91.15	Very Strong	0.72	2.47	h017.png
137.49	2.62	expectrating	5	high_cue	n/a	33.56	Strong	33.56	Strong	0.6	2.02	h040.png
172.39	3.2	expectrating	6	high_cue	n/a	61.48	Strong	61.48	Strong	0.2	3.0	h018.png
199.88	2.06	expectrating	7	high_cue	n/a	55.67	Strong	55.67	Strong	0.65	1.41	h024.png
239.68	1.33	expectrating	8	low_cue	n/a	0.0		0.0		0.32	1.01	l002.png
271.29	2.35	expectrating	9	high_cue	n/a	65.22	Very Strong	65.22	Very Strong	0.53	1.82	h046.png
304.19	2.67	expectrating	10	low_cue	n/a	4.18	Weak	4.18	Weak	0.52	2.15	l008.png
336.88	2.44	expectrating	11	high_cue	n/a	52.84	Strong	52.84	Strong	0.35	2.09	h056.png
375.48	2.38	expectrating	12	low_cue	n/a	8.59	Weak	8.59	Weak	0.48	1.9	l032.png
15.67	7.01	stimulus	1	low_cue	med_stim	n/a	n/a	n/a	n/a	n/a	n/a	ll042t1afunaff_M.mp4
46.47	7.02	stimulus	2	low_cue	low_stim	n/a	n/a	n/a	n/a	n/a	n/a	mg066t2aeunaff_L.mp4
84.17	7.02	stimulus	3	low_cue	high_stim	n/a	n/a	n/a	n/a	n/a	n/a	gf097t2aaunaff_H.mp4
114.77	7.01	stimulus	4	high_cue	low_stim	n/a	n/a	n/a	n/a	n/a	n/a	aa048t2aaunaff_L.mp4
149.78	7.0	stimulus	5	high_cue	med_stim	n/a	n/a	n/a	n/a	n/a	n/a	th108t2aaunaff_M.mp4
180.97	7.0	stimulus	6	high_cue	high_stim	n/a	n/a	n/a	n/a	n/a	n/a	jl047t1aiaff_H.mp4
212.17	7.01	stimulus	7	high_cue	low_stim	n/a	n/a	n/a	n/a	n/a	n/a	ll042t1aaunaff_L.mp4
251.27	7.01	stimulus	8	low_cue	high_stim	n/a	n/a	n/a	n/a	n/a	n/a	aa048t2aeaff_H.mp4
279.17	7.01	stimulus	9	high_cue	high_stim	n/a	n/a	n/a	n/a	n/a	n/a	ll042t1aiaff_H.mp4
316.47	7.0	stimulus	10	low_cue	med_stim	n/a	n/a	n/a	n/a	n/a	n/a	jy115t1aeaff_M.mp4
349.17	7.01	stimulus	11	high_cue	med_stim	n/a	n/a	n/a	n/a	n/a	n/a	gf097t1aiaff_M.mp4
383.37	7.01	stimulus	12	low_cue	low_stim	n/a	n/a	n/a	n/a	n/a	n/a	jy115t1aaunaff_L.mp4
27.9	2.8	outcomerating	1	low_cue	med_stim	7.47	Weak	7.47	Weak	0.5	2.3	task-vicarious_scale.png
55.39	3.25	outcomerating	2	low_cue	low_stim	13.7	Moderate	13.7	Moderate	0.38	2.87	task-vicarious_scale.png
93.29	2.93	outcomerating	3	low_cue	high_stim	1.15	Barely detectable	1.15	Barely detectable	0.75	2.18	task-vicarious_scale.png
124.69	2.84	outcomerating	4	high_cue	low_stim	26.26	Moderate	26.26	Moderate	0.47	2.37	task-vicarious_scale.png
159.7	3.82	outcomerating	5	high_cue	med_stim	27.49	Moderate	27.49	Moderate	0.9	2.92	task-vicarious_scale.png
190.89	3.28	outcomerating	6	high_cue	high_stim	47.93	Strong	47.93	Strong	0.92	2.37	task-vicarious_scale.png
230.99	3.64	outcomerating	7	high_cue	low_stim	24.92	Moderate	24.92	Moderate	0.82	2.82	task-vicarious_scale.png
259.29	2.89	outcomerating	8	low_cue	high_stim	17.55	Moderate	17.55	Moderate	0.55	2.34	task-vicarious_scale.png
295.7	2.34	outcomerating	9	high_cue	high_stim	61.48	Strong	61.48	Strong	0.57	1.77	task-vicarious_scale.png
327.7	3.47	outcomerating	10	low_cue	med_stim	91.85	Very Strong	91.85	Very Strong	1.27	2.2	task-vicarious_scale.png
361.59	3.07	outcomerating	11	high_cue	med_stim	25.23	Moderate	25.23	Moderate	0.63	2.43	task-vicarious_scale.png
394.7	2.33	outcomerating	12	low_cue	low_stim	15.09	Moderate	15.09	Moderate	0.45	1.88	task-vicarious_scale.png
