onset	duration	trial_type	trial_index	cue	stimulusintensity	rating_value	rating_glmslabel	rating_value_fillna	rating_glmslabel_fillna	rating_mouseonset	rating_mousedur	stim_file	correct_response	participant_response	response_accuracy
10.6	0.99	cue	1	low_cue	n/a	n/a	n/a	n/a	n/a	n/a	n/a	l017.png	n/a	n/a	n/a
35.7	0.98	cue	2	low_cue	n/a	n/a	n/a	n/a	n/a	n/a	n/a	l002.png	n/a	n/a	n/a
61.3	0.99	cue	3	low_cue	n/a	n/a	n/a	n/a	n/a	n/a	n/a	l006.png	n/a	n/a	n/a
91.31	0.98	cue	4	low_cue	n/a	n/a	n/a	n/a	n/a	n/a	n/a	l016.png	n/a	n/a	n/a
120.0	0.99	cue	5	high_cue	n/a	n/a	n/a	n/a	n/a	n/a	n/a	h024.png	n/a	n/a	n/a
153.9	0.99	cue	6	high_cue	n/a	n/a	n/a	n/a	n/a	n/a	n/a	h052.png	n/a	n/a	n/a
194.2	0.99	cue	7	high_cue	n/a	n/a	n/a	n/a	n/a	n/a	n/a	h027.png	n/a	n/a	n/a
219.21	0.98	cue	8	high_cue	n/a	n/a	n/a	n/a	n/a	n/a	n/a	h037.png	n/a	n/a	n/a
251.4	0.99	cue	9	high_cue	n/a	n/a	n/a	n/a	n/a	n/a	n/a	h002.png	n/a	n/a	n/a
285.8	0.99	cue	10	high_cue	n/a	n/a	n/a	n/a	n/a	n/a	n/a	h044.png	n/a	n/a	n/a
326.2	0.99	cue	11	low_cue	n/a	n/a	n/a	n/a	n/a	n/a	n/a	l031.png	n/a	n/a	n/a
366.39	0.99	cue	12	low_cue	n/a	n/a	n/a	n/a	n/a	n/a	n/a	l042.png	n/a	n/a	n/a
12.33	1.7	expectrating	1	low_cue	n/a	13.37	Moderate	13.37	Moderate	0.4	1.3	l017.png	n/a	n/a	n/a
38.01	1.12	expectrating	2	low_cue	n/a	0.0		0.0		0.43	0.68	l002.png	n/a	n/a	n/a
64.22	0.75	expectrating	3	low_cue	n/a	3.92	Weak	3.92	Weak	0.05	0.7	l006.png	n/a	n/a	n/a
93.71	1.15	expectrating	4	low_cue	n/a	2.08	Barely detectable	2.08	Barely detectable	0.58	0.57	l016.png	n/a	n/a	n/a
122.9	3.99	expectrating	5	high_cue	n/a	5.76	Weak	5.76	Weak	3.57	0.42	h024.png	n/a	n/a	n/a
155.8	1.73	expectrating	6	high_cue	n/a	48.13	Strong	48.13	Strong	0.5	1.23	h052.png	n/a	n/a	n/a
197.0	1.2	expectrating	7	high_cue	n/a	34.01	Strong	34.01	Strong	0.28	0.92	h027.png	n/a	n/a	n/a
222.11	1.32	expectrating	8	high_cue	n/a	0.97	No sensation	0.97	No sensation	0.35	0.97	h037.png	n/a	n/a	n/a
253.8	0.72	expectrating	9	high_cue	n/a	6.16	Weak	6.16	Weak	0.15	0.57	h002.png	n/a	n/a	n/a
289.0	0.8	expectrating	10	high_cue	n/a	0.23	No sensation	0.23	No sensation	0.07	0.73	h044.png	n/a	n/a	n/a
328.1	1.1	expectrating	11	low_cue	n/a	2.86	Barely detectable	2.86	Barely detectable	0.28	0.82	l031.png	n/a	n/a	n/a
369.21	1.37	expectrating	12	low_cue	n/a	8.51	Weak	8.51	Weak	0.78	0.59	l042.png	n/a	n/a	n/a
23.12	6.99	stimulus	1	low_cue	low_stim	n/a	n/a	n/a	n/a	n/a	n/a	24_50_R.jpg	diff	diff	True
45.81	7.0	stimulus	2	low_cue	med_stim	n/a	n/a	n/a	n/a	n/a	n/a	45_100_R.jpg	diff	diff	True
74.2	7.0	stimulus	3	low_cue	low_stim	n/a	n/a	n/a	n/a	n/a	n/a	9_50.jpg	same	same	True
101.81	6.99	stimulus	4	low_cue	high_stim	n/a	n/a	n/a	n/a	n/a	n/a	9_150.jpg	same	diff	False
133.81	6.99	stimulus	5	high_cue	med_stim	n/a	n/a	n/a	n/a	n/a	n/a	45_100.jpg	same	diff	False
169.8	7.0	stimulus	6	high_cue	high_stim	n/a	n/a	n/a	n/a	n/a	n/a	24_150.jpg	same	diff	False
206.2	7.0	stimulus	7	high_cue	med_stim	n/a	n/a	n/a	n/a	n/a	n/a	34_100_R.jpg	diff	diff	True
234.5	7.0	stimulus	8	high_cue	low_stim	n/a	n/a	n/a	n/a	n/a	n/a	48_50.jpg	same	same	True
266.71	7.0	stimulus	9	high_cue	low_stim	n/a	n/a	n/a	n/a	n/a	n/a	43_50.jpg	same	same	True
298.0	7.0	stimulus	10	high_cue	high_stim	n/a	n/a	n/a	n/a	n/a	n/a	23_150.jpg	same	same	True
342.4	7.0	stimulus	11	low_cue	med_stim	n/a	n/a	n/a	n/a	n/a	n/a	34_100.jpg	same	diff	False
375.8	7.0	stimulus	12	low_cue	high_stim	n/a	n/a	n/a	n/a	n/a	n/a	22_150.jpg	same	same	True
31.1	1.48	outcomerating	1	low_cue	low_stim	2.99	Barely detectable	2.99	Barely detectable	0.63	0.85	task-cognitive_scale.png	n/a	n/a	n/a
56.31	0.99	outcomerating	2	low_cue	med_stim	2.07	Barely detectable	2.07	Barely detectable	0.43	0.55	task-cognitive_scale.png	n/a	n/a	n/a
86.31	3.47	outcomerating	3	low_cue	low_stim	15.88	Moderate	15.88	Moderate	2.95	0.52	task-cognitive_scale.png	n/a	n/a	n/a
112.3	1.2	outcomerating	4	low_cue	high_stim	0.46	No sensation	0.46	No sensation	0.72	0.48	task-cognitive_scale.png	n/a	n/a	n/a
142.81	2.17	outcomerating	5	high_cue	med_stim	23.09	Moderate	23.09	Moderate	1.2	0.97	task-cognitive_scale.png	n/a	n/a	n/a
184.21	1.86	outcomerating	6	high_cue	high_stim	0.0		0.0		1.33	0.52	task-cognitive_scale.png	n/a	n/a	n/a
214.2	1.07	outcomerating	7	high_cue	med_stim	0.0		0.0		0.45	0.62	task-cognitive_scale.png	n/a	n/a	n/a
242.7	0.9	outcomerating	8	high_cue	low_stim	4.82	Weak	4.82	Weak	0.45	0.45	task-cognitive_scale.png	n/a	n/a	n/a
280.8	1.12	outcomerating	9	high_cue	low_stim	0.0		0.0		0.53	0.59	task-cognitive_scale.png	n/a	n/a	n/a
311.31	1.95	outcomerating	10	high_cue	high_stim	3.31	Weak	3.31	Weak	1.42	0.53	task-cognitive_scale.png	n/a	n/a	n/a
353.31	1.68	outcomerating	11	low_cue	med_stim	39.5	Strong	39.5	Strong	0.32	1.37	task-cognitive_scale.png	n/a	n/a	n/a
394.81	1.35	outcomerating	12	low_cue	high_stim	5.06	Weak	5.06	Weak	0.77	0.58	task-cognitive_scale.png	n/a	n/a	n/a
