onset	duration	trial_type	trial_index	cue	stimulusintensity	rating_value	rating_glmslabel	rating_value_fillna	rating_glmslabel_fillna	rating_mouseonset	rating_mousedur	stim_file	correct_response	participant_response	response_accuracy
5.69	0.99	cue	1	low_cue	n/a	n/a	n/a	n/a	n/a	n/a	n/a	l015.png	n/a	n/a	n/a
33.4	0.98	cue	2	low_cue	n/a	n/a	n/a	n/a	n/a	n/a	n/a	l017.png	n/a	n/a	n/a
71.1	0.99	cue	3	low_cue	n/a	n/a	n/a	n/a	n/a	n/a	n/a	l041.png	n/a	n/a	n/a
100.69	0.99	cue	4	high_cue	n/a	n/a	n/a	n/a	n/a	n/a	n/a	h051.png	n/a	n/a	n/a
135.8	0.98	cue	5	high_cue	n/a	n/a	n/a	n/a	n/a	n/a	n/a	h027.png	n/a	n/a	n/a
170.6	0.98	cue	6	high_cue	n/a	n/a	n/a	n/a	n/a	n/a	n/a	h052.png	n/a	n/a	n/a
196.89	0.99	cue	7	high_cue	n/a	n/a	n/a	n/a	n/a	n/a	n/a	h030.png	n/a	n/a	n/a
236.99	0.99	cue	8	low_cue	n/a	n/a	n/a	n/a	n/a	n/a	n/a	l026.png	n/a	n/a	n/a
268.3	0.98	cue	9	high_cue	n/a	n/a	n/a	n/a	n/a	n/a	n/a	h029.png	n/a	n/a	n/a
301.9	0.98	cue	10	low_cue	n/a	n/a	n/a	n/a	n/a	n/a	n/a	l024.png	n/a	n/a	n/a
333.89	0.99	cue	11	high_cue	n/a	n/a	n/a	n/a	n/a	n/a	n/a	h036.png	n/a	n/a	n/a
372.49	0.99	cue	12	low_cue	n/a	n/a	n/a	n/a	n/a	n/a	n/a	l010.png	n/a	n/a	n/a
7.71	3.58	expectrating	1	low_cue	n/a	6.9	Weak	6.9	Weak	2.52	1.07	l015.png	n/a	n/a	n/a
35.7	1.07	expectrating	2	low_cue	n/a	6.55	Weak	6.55	Weak	0.32	0.76	l017.png	n/a	n/a	n/a
73.4	1.32	expectrating	3	low_cue	n/a	15.09	Moderate	15.09	Moderate	0.05	1.27	l041.png	n/a	n/a	n/a
103.49	0.98	expectrating	4	high_cue	n/a	57.78	Strong	57.78	Strong	0.05	0.93	h051.png	n/a	n/a	n/a
137.5	1.33	expectrating	5	high_cue	n/a	18.0	Moderate	18.0	Moderate	0.47	0.87	h027.png	n/a	n/a	n/a
172.4	1.07	expectrating	6	high_cue	n/a	35.35	Strong	35.35	Strong	0.3	0.77	h052.png	n/a	n/a	n/a
199.89	1.47	expectrating	7	high_cue	n/a	14.55	Moderate	14.55	Moderate	0.75	0.72	h030.png	n/a	n/a	n/a
239.71	1.63	expectrating	8	low_cue	n/a	13.42	Moderate	13.42	Moderate	0.28	1.35	l026.png	n/a	n/a	n/a
271.3	1.23	expectrating	9	high_cue	n/a	34.33	Strong	34.33	Strong	0.18	1.05	h029.png	n/a	n/a	n/a
304.2	2.02	expectrating	10	low_cue	n/a	8.73	Weak	8.73	Weak	0.47	1.55	l024.png	n/a	n/a	n/a
336.91	1.7	expectrating	11	high_cue	n/a	16.45	Moderate	16.45	Moderate	0.47	1.23	h036.png	n/a	n/a	n/a
375.49	2.58	expectrating	12	low_cue	n/a	29.84	Strong	29.84	Strong	0.05	2.53	l010.png	n/a	n/a	n/a
15.71	6.99	stimulus	1	low_cue	med_stim	n/a	n/a	n/a	n/a	n/a	n/a	35_100_R.jpg	diff	diff	True
46.5	6.99	stimulus	2	low_cue	low_stim	n/a	n/a	n/a	n/a	n/a	n/a	27_50.jpg	same		False
84.2	7.0	stimulus	3	low_cue	high_stim	n/a	n/a	n/a	n/a	n/a	n/a	27_150.jpg	same	same	True
114.8	7.0	stimulus	4	high_cue	low_stim	n/a	n/a	n/a	n/a	n/a	n/a	18_50_R.jpg	diff	diff	True
149.81	6.99	stimulus	5	high_cue	med_stim	n/a	n/a	n/a	n/a	n/a	n/a	43_100_R.jpg	diff	diff	True
181.0	6.99	stimulus	6	high_cue	high_stim	n/a	n/a	n/a	n/a	n/a	n/a	44_150.jpg	same	same	True
212.2	7.0	stimulus	7	high_cue	low_stim	n/a	n/a	n/a	n/a	n/a	n/a	10_50_R.jpg	diff	diff	True
251.3	7.0	stimulus	8	low_cue	high_stim	n/a	n/a	n/a	n/a	n/a	n/a	38_150_R.jpg	diff	diff	True
279.21	6.99	stimulus	9	high_cue	high_stim	n/a	n/a	n/a	n/a	n/a	n/a	42_150.jpg	same	same	True
316.5	6.99	stimulus	10	low_cue	med_stim	n/a	n/a	n/a	n/a	n/a	n/a	47_100.jpg	same	same	True
349.2	7.0	stimulus	11	high_cue	med_stim	n/a	n/a	n/a	n/a	n/a	n/a	18_100_R.jpg	diff	diff	True
383.4	7.0	stimulus	12	low_cue	low_stim	n/a	n/a	n/a	n/a	n/a	n/a	35_50_R.jpg	diff	diff	True
27.9	2.21	outcomerating	1	low_cue	med_stim	8.73	Weak	8.73	Weak	0.28	1.92	task-cognitive_scale.png	n/a	n/a	n/a
55.41	2.72	outcomerating	2	low_cue	low_stim	8.82	Weak	8.82	Weak	0.92	1.8	task-cognitive_scale.png	n/a	n/a	n/a
93.3	1.92	outcomerating	3	low_cue	high_stim	9.73	Weak	9.73	Weak	1.05	0.87	task-cognitive_scale.png	n/a	n/a	n/a
124.7	2.69	outcomerating	4	high_cue	low_stim	6.9	Weak	6.9	Weak	1.05	1.64	task-cognitive_scale.png	n/a	n/a	n/a
159.7	2.44	outcomerating	5	high_cue	med_stim	5.55	Weak	5.55	Weak	0.6	1.84	task-cognitive_scale.png	n/a	n/a	n/a
190.89	2.42	outcomerating	6	high_cue	high_stim	27.69	Moderate	27.69	Moderate	0.75	1.67	task-cognitive_scale.png	n/a	n/a	n/a
231.01	1.83	outcomerating	7	high_cue	low_stim	9.27	Weak	9.27	Weak	1.05	0.78	task-cognitive_scale.png	n/a	n/a	n/a
259.3	3.64	outcomerating	8	low_cue	high_stim	12.18	Moderate	12.18	Moderate	2.3	1.34	task-cognitive_scale.png	n/a	n/a	n/a
295.7	1.87	outcomerating	9	high_cue	high_stim	19.16	Moderate	19.16	Moderate	0.82	1.06	task-cognitive_scale.png	n/a	n/a	n/a
327.69		outcomerating	10	low_cue	med_stim							task-cognitive_scale.png	n/a	n/a	n/a
361.6	1.67	outcomerating	11	high_cue	med_stim	27.29	Moderate	27.29	Moderate	0.6	1.07	task-cognitive_scale.png	n/a	n/a	n/a
394.7	3.4	outcomerating	12	low_cue	low_stim	12.35	Moderate	12.35	Moderate	0.18	3.22	task-cognitive_scale.png	n/a	n/a	n/a
