ISI01_biopac,ISI01_duration,ISI01_onset,ISI02_biopac,ISI02_duration,ISI02_onset,ISI03_biopac,ISI03_duration,ISI03_onset,ITI_biopac,ITI_duration,ITI_onset,delay_between_medoc,event01_cue_biopac,event01_cue_filename,event01_cue_onset,event01_cue_type,event02_expect_RT,event02_expect_angle,event02_expect_angle_label,event02_expect_biopac,event02_expect_displayonset,event02_expect_responseonset,event03_stimulusC_RT,event03_stimulusC_reseponseonset,event03_stimulusC_response,event03_stimulusC_responsekeyname,event03_stimulus_C_stim_filename,event03_stimulus_C_stim_match,event03_stimulus_C_stim_num,event03_stimulus_P_delay_between_medoc,event03_stimulus_P_trigger,event03_stimulus_V_filename,event03_stimulus_V_patientid,event03_stimulus_biopac,event03_stimulus_displayonset,event03_stimulus_type,event04_actual_RT,event04_actual_angle,event04_actual_angle_label,event04_actual_biopac,event04_actual_displayonset,event04_actual_responseonset,param_cond_type,param_counterbalance_block_num,param_counterbalance_ver,param_cue_type,param_end_biopac,param_end_instruct_onset,param_experiment_duration,param_run_num,param_start_biopac,param_stimulus_type,param_task_name,param_trigger_onset,session_id,src_subject_id,trial_no
1616699404.57196,0.893651008605957,1616699404.5697,1616699409.50718,7.2584514617919895,1616699409.5049,1616699425.77984,9.28563117980957,1616699425.77771,1616699398.27262,5.29710817337036,1616699398.26731,0.0763640403747559,1616699403.57159,h044.png,1616699403.56932,high_cue,1.98434853553772,79.52576517177421,FIX,1616699405.48781,1616699405.48671,1616699407.47106,0,0,0,,,,0,0,Command Recieved: TRIGGER_AND_Response: RESULT_OK,,,1616699416.85753,1616699416.8563,low_stim,2.38884735107422,40.1009075462122,FIX,1616699435.0876,1616699435.0812302,1616699437.4700801,4,2,1,high_cue,1616699794.3062599,1616699794.30038,398.807332515717,-1,1616699395.49496,low_stim,pain,1616699395.49305,4,7,1
1616699448.87177,1.59356713294983,1616699448.86978,1616699454.50714,7.9581036567688,1616699454.50524,1616699471.48054,7.8850195407867405,1616699471.4783301,1616699439.11811,8.74850225448608,1616699439.11609,0.0821130275726318,1616699447.87176,l015.png,1616699447.8694,low_cue,2.6010961532592796,22.530979230465398,FIX,1616699450.4881,1616699450.48706,1616699453.08815,0,0,0,,,,0,0,Command Recieved: TRIGGER_AND_Response: RESULT_OK,,,1616699462.54706,1616699462.5460901,med_stim,2.3389770984649703,62.3056084068584,FIX,1616699479.3877199,1616699479.38132,1616699481.72029,2,2,1,low_cue,1616699794.3062599,1616699794.30038,398.807332515717,-1,1616699395.49496,med_stim,pain,1616699395.49305,4,7,2
1616699489.67206,1.89480900764465,1616699489.66854,1616699495.60608,3.4592301845550497,1616699495.60412,1616699508.0775301,3.7878491878509504,1616699508.0755,1616699483.4045699,5.26492285728455,1616699483.3995,0.06569504737854,1616699488.6870599,h032.png,1616699488.6848302,high_cue,2.25113010406494,61.1690316876096,FIX,1616699491.58804,1616699491.58593,1616699493.83706,0,0,0,,,,0,0,Command Recieved: TRIGGER_AND_Response: RESULT_OK,,,1616699499.1303802,1616699499.1295302,high_stim,1.50070524215698,78.82616175818531,FIX,1616699511.8879,1616699511.87693,1616699513.37764,6,2,1,high_cue,1616699794.3062599,1616699794.30038,398.807332515717,-1,1616699395.49496,high_stim,pain,1616699395.49305,4,7,3
1616699519.8822,2.2833867073059104,1616699519.87996,1616699526.20561,1.96432948112488,1616699526.19902,1616699537.1723099,1.29351353645325,1616699537.16983,1616699515.90584,2.96941590309143,1616699515.89512,0.0418758392333984,1616699518.88153,l021.png,1616699518.87958,low_cue,1.35642504692078,56.437256218907606,FIX,1616699522.18828,1616699522.18083,1616699523.53726,0,0,0,,,,0,0,Command Recieved: TRIGGER_AND_Response: RESULT_OK,,,1616699528.20766,1616699528.20599,high_stim,1.98418807983398,76.5221772467587,FIX,1616699538.48825,1616699538.4870002,1616699540.47118,3,2,1,low_cue,1616699794.3062599,1616699794.30038,398.807332515717,-1,1616699395.49496,high_stim,pain,1616699395.49305,4,7,4
1616699547.77627,0.789505243301392,1616699547.77384,1616699552.61167,7.95434498786926,1616699552.609,1616699569.58503,3.5812606811523398,1616699569.5820901,1616699542.52513,4.243116378784181,1616699542.52185,0.0560510158538818,1616699546.7902699,h010.png,1616699546.77346,high_cue,1.96765685081482,75.796062046486,FIX,1616699548.5917401,1616699548.5908198,1616699550.55847,0,0,0,,,,0,0,Command Recieved: TRIGGER_AND_Response: RESULT_OK,,,1616699560.62251,1616699560.62074,low_stim,1.9540550708770799,53.1761970984455,FIX,1616699573.18839,1616699573.18345,1616699575.1375,4,2,1,high_cue,1616699794.3062599,1616699794.30038,398.807332515717,-1,1616699395.49496,low_stim,pain,1616699395.49305,4,7,5
1616699584.8727698,1.0921449661254898,1616699584.8712,1616699589.9918401,1.9735431671142598,1616699589.9898,1616699600.97935,1.9860565662384,1616699600.9772902,1616699577.21999,6.64594221115112,1616699577.2183099,0.0354199409484863,1616699583.87256,h004.png,1616699583.8708198,high_cue,1.05055713653564,53.0835960498295,FIX,1616699585.98854,1616699585.9716198,1616699587.0221698,0,0,0,,,,0,0,Command Recieved: TRIGGER_AND_Response: RESULT_OK,,,1616699592.00021,1616699591.99929,med_stim,1.4173078536987298,72.4509977709322,FIX,1616699602.9886,1616699602.97805,1616699604.39535,5,2,1,high_cue,1616699794.3062599,1616699794.30038,398.807332515717,-1,1616699395.49496,med_stim,pain,1616699395.49305,4,7,6
1616699614.6844199,1.0808744430541999,1616699614.6824698,1616699619.80598,3.86227416992188,1616699619.80107,1616699632.6743698,1.99074006080627,1616699632.67261,1616699607.01524,6.65131425857544,1616699607.01291,0.060474157333374,1616699613.6844099,l044.png,1616699613.68209,low_cue,2.10473537445068,50.8726282810668,FIX,1616699615.78856,1616699615.78289,1616699617.88762,0,0,0,,,,0,0,Command Recieved: TRIGGER_AND_Response: RESULT_OK,,,1616699623.72549,1616699623.7244802,high_stim,2.9346532821655296,80.085054321525,FIX,1616699634.68859,1616699634.6733599,1616699637.6080198,3,2,1,low_cue,1616699794.3062599,1616699794.30038,398.807332515717,-1,1616699395.49496,high_stim,pain,1616699395.49305,4,7,7
1616699642.6781,1.4869589805603,1616699642.67639,1616699648.19657,2.96820473670959,1616699648.1951401,1616699660.18531,3.58033871650696,1616699660.1830099,1616699638.7062,2.9726176261901895,1616699638.69155,0.0279929637908936,1616699641.67733,h049.png,1616699641.67601,high_cue,2.98460650444031,62.5092447902577,FIX,1616699644.18872,1616699644.17696,1616699647.16156,0,0,0,,,,0,0,Command Recieved: TRIGGER_AND_Response: RESULT_OK,,,1616699651.19326,1616699651.19206,med_stim,2.02023386955261,59.511059500169104,FIX,1616699663.78872,1616699663.78437,1616699665.8046,5,2,1,high_cue,1616699794.3062599,1616699794.30038,398.807332515717,-1,1616699395.49496,med_stim,pain,1616699395.49305,4,7,8
1616699674.07334,2.0917546749115,1616699674.07159,1616699680.1923401,5.7727746963501,1616699680.1905699,1616699694.98093,5.68384861946106,1616699694.9795,1616699667.80532,5.26177382469177,1616699667.8025599,0.0731971263885498,1616699673.07282,l056.png,1616699673.07122,low_cue,1.7174527645111102,48.576334374997394,FIX,1616699676.18882,1616699676.17239,1616699677.8898401,0,0,0,,,,0,0,Command Recieved: TRIGGER_AND_Response: RESULT_OK,,,1616699686.0378098,1616699686.03702,low_stim,2.80644774436951,45.1632353974189,FIX,1616699700.68882,1616699700.68165,1616699703.4881,1,2,1,low_cue,1616699794.3062599,1616699794.30038,398.807332515717,-1,1616699395.49496,low_stim,pain,1616699395.49305,4,7,9
1616699706.17311,1.2962863445281998,1616699706.16706,1616699711.50614,1.9609339237213101,1616699711.50241,1616699722.47516,3.7901196479797403,1616699722.4732301,1616699704.70594,0.46435236930847207,1616699704.69984,0.0532970428466797,1616699705.18535,l001.png,1616699705.1833599,low_cue,1.7039504051208503,46.636577041616704,FIX,1616699707.48889,1616699707.48423,1616699709.18818,0,0,0,,,,0,0,Command Recieved: TRIGGER_AND_Response: RESULT_OK,,,1616699713.51789,1616699713.5171402,low_stim,3.0180561542511,46.963657534052,FIX,1616699726.28901,1616699726.2746599,1616699729.2927198,1,2,1,low_cue,1616699794.3062599,1616699794.30038,398.807332515717,-1,1616699395.49496,low_stim,pain,1616699395.49305,4,7,10
1616699735.6803,2.08512711524963,1616699735.67822,1616699741.79915,6.266147375106809,1616699741.7972,1616699757.07387,5.29370522499084,1616699757.06964,1616699730.30662,4.37140798568726,1616699730.29285,0.0658469200134277,1616699734.6799,h022.png,1616699734.67784,high_cue,3.24268937110901,83.3036223838003,FIX,1616699737.78935,1616699737.77901,1616699741.0217,0,0,0,,,,0,0,Command Recieved: TRIGGER_AND_Response: RESULT_OK,,,1616699748.13047,1616699748.1296802,high_stim,1.56749939918518,59.511059500169104,FIX,1616699762.37271,1616699762.37164,1616699763.93914,6,2,1,high_cue,1616699794.3062599,1616699794.30038,398.807332515717,-1,1616699395.49496,high_stim,pain,1616699395.49305,4,7,11
1616699768.1758,1.28950762748718,1616699768.17384,1616699773.49429,1.97082924842834,1616699773.4925199,1616699784.48192,5.78334188461304,1616699784.48,1616699766.40809,0.75778865814209,1616699766.4065099,0.066694974899292,1616699767.17523,l033.png,1616699767.17346,low_cue,2.2343297004699703,41.0995062576181,FIX,1616699769.48934,1616699769.4743302,1616699771.70866,0,0,0,,,,0,0,Command Recieved: TRIGGER_AND_Response: RESULT_OK,,,1616699775.53244,1616699775.53098,med_stim,2.08971285820007,61.279673202130496,FIX,1616699790.28356,1616699790.2822,1616699792.3719099,2,2,1,low_cue,1616699794.3062599,1616699794.30038,398.807332515717,-1,1616699395.49496,med_stim,pain,1616699395.49305,4,7,12
1616700320.36784,1.8856942653656,1616700320.36595,1616700326.30945,1.0501172542572,1616700326.3015301,1616700336.37391,4.37964367866516,1616700336.37201,1616700310.86447,8.4908971786499,1616700310.86236,0.0492799282073975,1616700319.37708,h037.png,1616700319.36558,high_cue,1.8509445190429699,69.0121530299062,FIX,1616700322.28483,1616700322.28334,1616700324.13429,0,0,0,,,,0,0,Command Recieved: TRIGGER_AND_Response: RESULT_OK,,,1616700327.41066,1616700327.40964,high_stim,2.76798415184021,77.52092819807241,FIX,1616700340.7755802,1616700340.77367,1616700343.54165,6,1,1,high_cue,1616700706.89803,1616700706.89543,398.823128223419,1,1616700308.0741,high_stim,pain,1616700308.0723,4,7,13
1616700353.3636599,1.88988661766052,1616700353.36176,1616700359.28231,8.17098140716553,1616700359.28067,1616700376.47239,2.28114771842957,1616700376.4705,1616700344.8098,7.56092119216919,1616700344.7918599,0.0463321208953857,1616700352.36302,l044.png,1616700352.36138,low_cue,1.98438048362732,62.7070924134496,FIX,1616700355.27599,1616700355.26248,1616700357.24686,0,0,0,,,,0,0,Command Recieved: TRIGGER_AND_Response: RESULT_OK,,,1616700367.4997,1616700367.49865,high_stim,3.5870587825775098,70.2531633945739,FIX,1616700378.7760699,1616700378.77137,1616700382.3584301,3,1,1,low_cue,1616700706.89803,1616700706.89543,398.823128223419,1,1616700308.0741,high_stim,pain,1616700308.0723,4,7,14
1616700389.76076,1.9927902221679699,1616700389.7588599,1616700395.7964,2.25717687606812,1616700395.7944698,1616700407.0673401,1.5862462520599399,1616700407.0654,1616700382.9266,5.82955121994019,1616700382.92294,0.0610899925231934,1616700388.76019,h049.png,1616700388.75848,high_cue,1.4028398990631101,64.5663162536045,FIX,1616700391.7773,1616700391.77629,1616700393.17913,0,0,0,,,,0,0,Command Recieved: TRIGGER_AND_Response: RESULT_OK,,,1616700398.1140199,1616700398.11321,high_stim,2.12591004371643,65.0803356301676,FIX,1616700408.6763,1616700408.66601,1616700410.79192,6,1,1,high_cue,1616700706.89803,1616700706.89543,398.823128223419,1,1616700308.0741,high_stim,pain,1616700308.0723,4,7,15
1616700414.6703699,0.783372402191162,1616700414.6682801,1616700419.49318,1.06488561630249,1616700419.48676,1616700429.56009,4.5944242477417,1616700429.55724,1616700412.6933599,0.9685156345367428,1616700412.68419,0.0522549152374268,1616700413.66977,l035.png,1616700413.6679,low_cue,2.17344522476196,61.792509120984704,FIX,1616700415.4761698,1616700415.46858,1616700417.64202,0,0,0,,,,0,0,Command Recieved: TRIGGER_AND_Response: RESULT_OK,,,1616700420.60601,1616700420.6046698,med_stim,3.16808223724365,47.1210963966615,FIX,1616700434.1767,1616700434.17565,1616700437.34373,2,1,1,low_cue,1616700706.89803,1616700706.89543,398.823128223419,1,1616700308.0741,med_stim,pain,1616700308.0723,4,7,16
1616700442.8642,0.789379119873047,1616700442.8622699,1616700447.69946,6.254217863082889,1616700447.6974301,1616700462.97163,4.58177614212036,1616700462.9698699,1616700438.21031,3.6584610939025897,1616700438.19384,0.0497159957885742,1616700441.86325,h009.png,1616700441.86189,high_cue,3.30137753486633,72.89727103094759,FIX,1616700443.68018,1616700443.67924,1616700446.98062,0,0,0,,,,0,0,Command Recieved: TRIGGER_AND_Response: RESULT_OK,,,1616700454.0034301,1616700454.00206,low_stim,1.18721461296082,51.009005957494495,FIX,1616700467.57618,1616700467.57161,1616700468.75883,4,1,1,high_cue,1616700706.89803,1616700706.89543,398.823128223419,1,1616700308.0741,low_stim,pain,1616700308.0723,4,7,17
1616700478.56089,1.8925507068634,1616700478.5591,1616700484.4965599,8.45697283744812,1616700484.4946802,1616700501.96983,2.78369808197021,1616700501.96795,1616700471.61025,5.946053266525269,1616700471.6064699,0.0806379318237305,1616700477.56061,h054.png,1616700477.5587199,high_cue,1.80086779594421,77.2682864387335,FIX,1616700480.47773,1616700480.47649,1616700482.27736,0,0,0,,,,0,0,Command Recieved: TRIGGER_AND_Response: RESULT_OK,,,1616700493.0336099,1616700493.03279,med_stim,2.42336487770081,51.01750303284571,FIX,1616700504.77667,1616700504.76901,1616700507.19237,5,1,1,high_cue,1616700706.89803,1616700706.89543,398.823128223419,1,1616700308.0741,med_stim,pain,1616700308.0723,4,7,18
1616700513.46101,1.89602160453796,1616700513.45563,1616700519.39404,5.06044459342957,1616700519.3912,1616700533.4646301,2.9884569644927996,1616700533.46319,1616700508.79325,3.6653106212616002,1616700508.78719,0.0520579814910889,1616700512.4737802,l022.png,1616700512.47192,low_cue,2.16952323913574,50.194428907734796,FIX,1616700515.3765,1616700515.37302,1616700517.54254,0,0,0,,,,0,0,Command Recieved: TRIGGER_AND_Response: RESULT_OK,,,1616700524.50541,1616700524.50445,high_stim,2.3510746955871604,72.659741768931,FIX,1616700536.4767199,1616700536.4643302,1616700538.8154,3,1,1,low_cue,1616700706.89803,1616700706.89543,398.823128223419,1,1616700308.0741,high_stim,pain,1616700308.0723,4,7,19
1616700543.3687198,0.884711980819702,1616700543.36694,1616700548.28755,2.66618609428406,1616700548.28546,1616700559.96112,3.7951056957244904,1616700559.95654,1616700540.49395,1.8700485229492199,1616700540.4825099,0.0754380226135254,1616700542.36849,h016.png,1616700542.36656,high_cue,2.64193272590637,70.1148348861446,FIX,1616700544.27701,1616700544.26728,1616700546.90921,0,0,0,,,,0,0,Command Recieved: TRIGGER_AND_Response: RESULT_OK,,,1616700551.0287,1616700551.02767,low_stim,2.35136747360229,38.7682543949599,FIX,1616700563.7774198,1616700563.77465,1616700566.12602,4,1,1,high_cue,1616700706.89803,1616700706.89543,398.823128223419,1,1616700308.0741,low_stim,pain,1616700308.0723,4,7,20
1616700575.7641199,0.789130210876465,1616700575.7625198,1616700580.5826302,6.2706413269042995,1616700580.5810099,1616700595.87218,1.1815261840820301,1616700595.8701198,1616700567.79369,6.959647417068481,1616700567.79284,0.0678780078887939,1616700574.7642,l056.png,1616700574.76214,low_cue,1.23390531539917,40.7515454706387,FIX,1616700576.57717,1616700576.56282,1616700577.79673,0,0,0,,,,0,0,Command Recieved: TRIGGER_AND_Response: RESULT_OK,,,1616700586.9214199,1616700586.92021,low_stim,1.45569181442261,38.6598082540901,FIX,1616700597.07688,1616700597.07057,1616700598.52627,1,1,1,low_cue,1616700706.89803,1616700706.89543,398.823128223419,1,1616700308.0741,low_stim,pain,1616700308.0723,4,7,21
1616700603.86195,1.49517416954041,1616700603.8564699,1616700609.3945699,4.55974960327148,1616700609.3919,1616700622.96543,2.28795099258423,1616700622.9637,1616700601.0944,1.7638130187988301,1616700601.08876,0.0710790157318115,1616700602.87454,h004.png,1616700602.8727698,high_cue,2.7692723274230997,54.006539472441304,FIX,1616700605.37718,1616700605.37371,1616700608.14299,0,0,0,,,,0,0,Command Recieved: TRIGGER_AND_Response: RESULT_OK,,,1616700614.0243301,1616700614.02335,med_stim,1.7340996265411397,52.8024339847534,FIX,1616700625.2784,1616700625.26457,1616700626.9986699,5,1,1,high_cue,1616700706.89803,1616700706.89543,398.823128223419,1,1616700308.0741,med_stim,pain,1616700308.0723,4,7,22
1616700636.17034,1.88295769691467,1616700636.16869,1616700642.08916,6.86405205726624,1616700642.08759,1616700657.9620001,11.5913860797882,1616700657.96026,1616700629.30102,5.85310554504395,1616700629.2994301,0.0783920288085938,1616700635.1699,l047.png,1616700635.16831,low_cue,2.3738100528717,29.7448812969422,FIX,1616700638.07737,1616700638.0694098,1616700640.44322,0,0,0,,,,0,0,Command Recieved: TRIGGER_AND_Response: RESULT_OK,,,1616700649.03155,1616700649.0306,med_stim,1.98426938056946,43.8639719603119,FIX,1616700669.5774,1616700669.56465,1616700671.54892,2,1,1,low_cue,1616700706.89803,1616700706.89543,398.823128223419,1,1616700308.0741,med_stim,pain,1616700308.0723,4,7,23
1616700675.56853,1.8847289085388201,1616700675.5669198,1616700681.4874802,0.765822887420654,1616700681.4858198,1616700691.27445,11.5787889957428,1616700691.27286,1616700673.59409,0.969776630401611,1616700673.58284,0.0506660938262939,1616700674.56816,l015.png,1616700674.56654,low_cue,1.74244809150696,29.8590161649231,FIX,1616700677.47734,1616700677.46764,1616700679.2100801,0,0,0,,,,0,0,Command Recieved: TRIGGER_AND_Response: RESULT_OK,,,1616700682.30472,1616700682.30357,low_stim,2.9679501056671103,32.4711922908485,FIX,1616700702.8614,1616700702.86057,1616700705.8285198,1,1,1,low_cue,1616700706.89803,1616700706.89543,398.823128223419,1,1616700308.0741,low_stim,pain,1616700308.0723,4,7,24
1616095379.6581,1.68048286437988,1616095379.6559,1616095385.4093401,5.62833952903748,1616095385.40804,1616095400.0601099,1.78954744338989,1616095400.0468302,1616095371.6595,6.98511266708374,1616095371.65291,0.0695719718933105,1616095378.66133,h027.png,1616095378.65552,high_cue,2.58456611633301,65.4027458408771,FIX,1616095381.39167,1616095381.3898802,1616095383.97444,0,0,0,,,,0,0,Command Recieved: TRIGGER_AND_Response: RESULT_OK,,,1616095391.12624,1616095391.12533,med_stim,1.88463020324707,87.2408923413797,FIX,1616095401.85868,1616095401.8475099,1616095403.73214,5,2,1,high_cue,1616095767.67537,1616095767.66726,398.811512947083,3,1616095368.85988,med_stim,pain,1616095368.85575,3,7,25
1616095411.35994,0.48532962799072293,1616095411.35105,1616095415.87624,2.06697845458984,1616095415.8694,1616095426.95949,1.3795108795166,1616095426.9568698,1616095406.00104,4.3383994102478,1616095405.99905,0.0401649475097656,1616095410.35932,h023.png,1616095410.35068,high_cue,1.33971762657166,91.8401952563928,FIX,1616095411.85826,1616095411.8512402,1616095413.19095,0,0,0,,,,0,0,Command Recieved: TRIGGER_AND_Response: RESULT_OK,,,1616095417.97839,1616095417.97717,high_stim,2.6345043182373,88.38969939750099,FIX,1616095428.35838,1616095428.35739,1616095430.9919,6,2,1,high_cue,1616095767.67537,1616095767.66726,398.811512947083,3,1616095368.85988,high_stim,pain,1616095368.85575,3,7,26
1616095437.24599,1.09234166145325,1616095437.24404,1616095442.38107,2.15709352493286,1616095442.37929,1616095453.55235,2.78626108169556,1616095453.5501199,1616095432.40949,3.8451862335205096,1616095432.39223,0.0403199195861816,1616095436.2597,l043.png,1616095436.24367,low_cue,2.31787848472595,45.0,FIX,1616095438.36201,1616095438.36112,1616095440.679,0,0,0,,,,0,0,Command Recieved: TRIGGER_AND_Response: RESULT_OK,,,1616095444.57903,1616095444.5775,high_stim,1.97395920753479,78.6900675259798,FIX,1616095456.3584,1616095456.35116,1616095458.32512,3,2,1,low_cue,1616095767.67537,1616095767.66726,398.811512947083,3,1616095368.85988,high_stim,pain,1616095368.85575,3,7,27
1616095466.65692,2.88137316703796,1616095466.65501,1616095473.5762901,4.16212677955627,1616095473.57425,1616095486.75962,1.39054584503174,1616095486.74583,1616095460.3933802,5.251622438430791,1616095460.3860002,0.0330319404602051,1616095465.65937,h018.png,1616095465.6546302,high_cue,1.60141658782959,96.21337526527842,FIX,1616095469.55822,1616095469.55609,1616095471.15751,0,0,0,,,,0,0,Command Recieved: TRIGGER_AND_Response: RESULT_OK,,,1616095477.77127,1616095477.77009,low_stim,2.4845006465911896,45.97653803576161,FIX,1616095488.1582198,1616095488.14635,1616095490.6308599,4,2,1,high_cue,1616095767.67537,1616095767.66726,398.811512947083,3,1616095368.85988,low_stim,pain,1616095368.85575,3,7,28
1616095498.26055,2.88625621795654,1616095498.25012,1616095505.17628,8.667011499404909,1616095505.16937,1616095522.86241,2.7770795822143595,1616095522.8593,1616095492.18319,5.05672407150269,1616095492.18119,0.0663399696350098,1616095497.2605698,h053.png,1616095497.24975,high_cue,1.9897136688232402,67.1329437002273,FIX,1616095501.1579099,1616095501.1512,1616095503.14092,0,0,0,,,,0,0,Command Recieved: TRIGGER_AND_Response: RESULT_OK,,,1616095513.9059901,1616095513.90405,med_stim,1.86765718460083,73.1683312417585,FIX,1616095525.66124,1616095525.66034,1616095527.5279999,5,2,1,high_cue,1616095767.67537,1616095767.66726,398.811512947083,3,1616095368.85988,med_stim,pain,1616095368.85575,3,7,29
1616095540.8515198,2.88703656196594,1616095540.84934,1616095547.7701302,0.8677902221679691,1616095547.76859,1616095557.65951,2.88077163696289,1616095557.6556098,1616095529.72578,10.1253724098206,1616095529.71185,0.060650110244751,1616095539.8593302,l038.png,1616095539.84897,low_cue,1.67385053634644,24.4059097796912,FIX,1616095543.75893,1616095543.7504199,1616095545.42427,0,0,0,,,,0,0,Command Recieved: TRIGGER_AND_Response: RESULT_OK,,,1616095548.69819,1616095548.69748,low_stim,3.9183063507080096,40.4519575908746,FIX,1616095560.55851,1616095560.55669,1616095564.475,1,2,1,low_cue,1616095767.67537,1616095767.66726,398.811512947083,3,1616095368.85988,low_stim,pain,1616095368.85575,3,7,30
1616095568.1442099,0.49352526664733903,1616095568.14285,1616095572.67987,4.25850057601929,1616095572.67788,1616095585.9594,11.786885261535598,1616095585.94949,1616095565.04337,2.09562873840332,1616095565.0417,0.0524759292602539,1616095567.15939,l018.png,1616095567.1424801,low_cue,1.5007181167602501,34.8409440041532,FIX,1616095568.6606698,1616095568.65971,1616095570.1604302,0,0,0,,,,0,0,Command Recieved: TRIGGER_AND_Response: RESULT_OK,,,1616095576.99145,1616095576.98963,med_stim,2.27039003372192,53.130102354156,FIX,1616095597.75864,1616095597.7539,1616095600.02429,2,2,1,low_cue,1616095767.67537,1616095767.66726,398.811512947083,3,1616095368.85988,med_stim,pain,1616095368.85575,3,7,31
1616095604.75849,1.07987236976624,1616095604.75651,1616095609.87667,3.2612962722778303,1616095609.87508,1616095622.15949,2.89005351066589,1616095622.14633,1616095601.77594,1.96536755561829,1616095601.77206,0.0633490085601807,1616095603.76045,l035.png,1616095603.75614,low_cue,3.0679774284362797,59.941874520513295,FIX,1616095605.85855,1616095605.85692,1616095608.9249,0,0,0,,,,0,0,Command Recieved: TRIGGER_AND_Response: RESULT_OK,,,1616095613.20207,1616095613.2005801,med_stim,1.38410758972168,62.918784593157206,FIX,1616095625.05853,1616095625.04741,1616095626.43152,2,2,1,low_cue,1616095767.67537,1616095767.66726,398.811512947083,3,1616095368.85988,med_stim,pain,1616095368.85575,3,7,32
1616095632.0516698,1.6863594055175801,1616095632.05002,1616095637.77115,3.2675609588623,1616095637.7688198,1616095650.0590801,4.5796439647674605,1616095650.05674,1616095629.0761,1.97179961204529,1616095629.0655699,0.047353982925415004,1616095631.0590801,h014.png,1616095631.04965,high_cue,1.4070148468017598,86.55261314813481,FIX,1616095633.75846,1616095633.75065,1616095635.15767,0,0,0,,,,0,0,Command Recieved: TRIGGER_AND_Response: RESULT_OK,,,1616095641.08501,1616095641.0843,high_stim,1.5340781211853,95.31989391780691,FIX,1616095654.65972,1616095654.65845,1616095656.1925302,6,2,1,high_cue,1616095767.67537,1616095767.66726,398.811512947083,3,1616095368.85988,high_stim,pain,1616095368.85575,3,7,33
1616095660.94574,1.19225215911865,1616095660.9441302,1616095666.18106,8.65696787834167,1616095666.17941,1616095683.8595,7.98370909690857,1616095683.85267,1616095658.6926801,1.26064348220825,1616095658.67662,0.0453829765319824,1616095659.95927,l041.png,1616095659.94375,low_cue,1.2005643844604499,32.3806777065692,FIX,1616095662.1624,1616095662.16125,1616095663.36181,0,0,0,,,,0,0,Command Recieved: TRIGGER_AND_Response: RESULT_OK,,,1616095674.88474,1616095674.88302,low_stim,1.66865801811218,46.3245219122912,FIX,1616095691.85849,1616095691.85566,1616095693.5243099,1,2,1,low_cue,1616095767.67537,1616095767.66726,398.811512947083,3,1616095368.85988,low_stim,pain,1616095368.85575,3,7,34
1616095706.44613,0.691950798034668,1616095706.44443,1616095711.16509,9.67352390289307,1616095711.16286,1616095729.8591301,6.08321928977966,1616095729.85316,1616095695.87521,9.563459873199461,1616095695.8738198,0.0376670360565186,1616095705.45998,h035.png,1616095705.4440598,high_cue,2.68451428413391,94.1680329767475,FIX,1616095707.15855,1616095707.14469,1616095709.82921,0,0,0,,,,0,0,Command Recieved: TRIGGER_AND_Response: RESULT_OK,,,1616095720.87611,1616095720.8748,low_stim,2.20223903656006,62.402704131356295,FIX,1616095735.95837,1616095735.95544,1616095738.15767,4,2,1,high_cue,1616095767.67537,1616095767.66726,398.811512947083,3,1616095368.85988,low_stim,pain,1616095368.85575,3,7,35
1616095741.4424,0.7955660820007321,1616095741.44081,1616095746.27755,0.860429286956787,1616095746.27595,1616095756.15965,7.49008011817932,1616095756.1463,1616095739.97551,0.463685035705566,1616095739.9736,0.0336530208587646,1616095740.45929,l030.png,1616095740.45711,low_cue,3.0179269313812296,21.5014343240479,FIX,1616095742.25869,1616095742.25778,1616095745.2757099,0,0,0,,,,0,0,Command Recieved: TRIGGER_AND_Response: RESULT_OK,,,1616095747.17224,1616095747.1710699,high_stim,1.55847716331482,65.45756511801851,FIX,1616095763.6586,1616095763.6491,1616095765.2075698,3,2,1,low_cue,1616095767.67537,1616095767.66726,398.811512947083,3,1616095368.85988,high_stim,pain,1616095368.85575,3,7,36
1614889794.01581,0.788866758346558,1614889794.01436,1614889798.85125,4.65370917320251,1614889798.84952,1614889812.52247,3.9818785190582298,1614889812.52135,1614889781.6108198,11.394121646881098,1614889781.6096802,0.0843029022216797,1614889793.0153599,l011.png,1614889793.0139802,low_cue,2.2677419185638397,33.5627437810924,FIX,1614889794.83149,1614889794.83134,1614889797.09908,0,0,0,,,,0,0,Command Recieved: TRIGGER_AND_Response: RESULT_OK,,,1614889803.59048,1614889803.5898,low_stim,3.4536452293396,57.4582464400049,FIX,1614889816.52667,1614889816.52286,1614889819.97651,1,1,1,low_cue,1614890177.36031,1614890177.35912,398.533571720123,5,1614889778.82641,low_stim,pain,1614889778.82555,1,7,37
1614889823.61103,1.99435925483704,1614889823.60887,1614889829.64539,4.65874719619751,1614889829.64448,1614889843.3173,4.786917686462401,1614889843.31631,1614889820.54385,2.06228494644165,1614889820.54104,0.0526638031005859,1614889822.6104698,l052.png,1614889822.60849,low_cue,1.55068588256836,2.54994901296018,FIX,1614889825.62672,1614889825.6263,1614889827.17699,0,0,0,,,,0,0,Command Recieved: TRIGGER_AND_Response: RESULT_OK,,,1614889834.35757,1614889834.35692,med_stim,1.9008753299713101,65.89776549883891,FIX,1614889848.11854,1614889848.11812,1614889850.019,2,1,1,low_cue,1614890177.36031,1614890177.35912,398.533571720123,5,1614889778.82641,med_stim,pain,1614889778.82555,1,7,38
1614889857.62279,1.98151540756226,1614889857.62171,1614889863.64439,0.762576341629028,1614889863.64065,1614889873.4118302,2.79222130775452,1614889873.41101,1614889852.14405,4.46702289581299,1614889852.1363099,0.0435070991516113,1614889856.6221302,h049.png,1614889856.62134,high_cue,1.57093930244446,72.0013050269785,FIX,1614889859.62284,1614889859.62247,1614889861.19341,0,0,0,,,,0,0,Command Recieved: TRIGGER_AND_Response: RESULT_OK,,,1614889864.4477901,1614889864.44736,med_stim,2.13430523872375,76.46830514883591,FIX,1614889876.2124,1614889876.21207,1614889878.34637,5,1,1,high_cue,1614890177.36031,1614890177.35912,398.533571720123,5,1614889778.82641,med_stim,pain,1614889778.82555,1,7,39
1614889890.31862,0.885834932327271,1614889890.31739,1614889895.23698,7.467312097549441,1614889895.23592,1614889911.71115,3.19442582130432,1614889911.7088,1614889880.24456,9.07307434082031,1614889880.23025,0.0379841327667236,1614889889.31781,l030.png,1614889889.31701,low_cue,2.00918912887573,59.941874520513295,FIX,1614889891.22749,1614889891.21773,1614889893.22692,0,0,0,,,,0,0,Command Recieved: TRIGGER_AND_Response: RESULT_OK,,,1614889902.74234,1614889902.74189,high_stim,2.01762986183167,70.8398268780187,FIX,1614889914.9104302,1614889914.9100099,1614889916.92764,3,1,1,low_cue,1614890177.36031,1614890177.35912,398.533571720123,5,1614889778.82641,high_stim,pain,1614889778.82555,1,7,40
1614889930.5170002,0.6873233318328861,1614889930.51591,1614889935.23525,2.46887445449829,1614889935.23435,1614889946.72326,5.88120365142822,1614889946.7220302,1614889918.92884,10.5751330852509,1614889918.9282,0.0417089462280273,1614889929.51667,h030.png,1614889929.51553,high_cue,2.6679296493530296,72.5090026877574,FIX,1614889931.21641,1614889931.2161698,1614889933.8841,0,0,0,,,,0,0,Command Recieved: TRIGGER_AND_Response: RESULT_OK,,,1614889937.74626,1614889937.74577,med_stim,2.58619618415833,75.06858282186249,FIX,1614889952.62726,1614889952.62425,1614889955.21045,5,1,1,high_cue,1614890177.36031,1614890177.35912,398.533571720123,5,1614889778.82641,med_stim,pain,1614889778.82555,1,7,41
1614889958.51151,2.0934207439422603,1614889958.50981,1614889964.62972,2.1744420528411896,1614889964.6287901,1614889975.81759,3.0868830680847203,1614889975.81635,1614889956.6445599,0.860891580581665,1614889956.64244,0.0453808307647705,1614889957.51148,l038.png,1614889957.5094302,low_cue,1.61746692657471,58.16579445444079,FIX,1614889960.61072,1614889960.6106,1614889962.22807,0,0,0,,,,0,0,Command Recieved: TRIGGER_AND_Response: RESULT_OK,,,1614889966.8497698,1614889966.84928,high_stim,1.65078091621399,73.1683312417585,FIX,1614889978.9179802,1614889978.9175198,1614889980.5683,3,1,1,low_cue,1614890177.36031,1614890177.35912,398.533571720123,5,1614889778.82641,high_stim,pain,1614889778.82555,1,7,42
1614889985.2209,1.9833338260650601,1614889985.2199,1614889991.24017,5.26439332962036,1614889991.23884,1614890005.51205,5.89233732223511,1614890005.51089,1614889982.9446,1.26763105392456,1614889982.9357,0.0473551750183105,1614889984.22073,l042.png,1614889984.2195199,low_cue,2.3899757862091096,69.14554196042171,FIX,1614889987.22732,1614889987.22065,1614889989.61063,0,0,0,,,,0,0,Command Recieved: TRIGGER_AND_Response: RESULT_OK,,,1614889996.55128,1614889996.55106,low_stim,2.5511298179626496,46.636577041616704,FIX,1614890011.4136698,1614890011.41312,1614890013.96425,1,1,1,low_cue,1614890177.36031,1614890177.35912,398.533571720123,5,1614889778.82641,low_stim,pain,1614889778.82555,1,7,43
1614890017.31655,0.687878847122192,1614890017.31535,1614890022.03474,0.769431352615356,1614890022.0338,1614890031.82218,4.88240361213684,1614890031.82083,1614890015.44502,0.8720192909240719,1614890015.4313,0.0557739734649658,1614890016.3162198,h017.png,1614890016.31497,high_cue,1.7007982730865498,85.618962168192,FIX,1614890018.02771,1614890018.01561,1614890019.71641,0,0,0,,,,0,0,Command Recieved: TRIGGER_AND_Response: RESULT_OK,,,1614890022.85991,1614890022.85957,high_stim,2.10491037368774,76.35928324370859,FIX,1614890036.72318,1614890036.72268,1614890038.82759,6,1,1,high_cue,1614890177.36031,1614890177.35912,398.533571720123,5,1614889778.82641,high_stim,pain,1614889778.82555,1,7,44
1614890045.61174,1.9938633441925002,1614890045.60937,1614890051.62941,2.1749231815338104,1614890051.62831,1614890062.81701,3.9873645305633505,1614890062.81586,1614890040.7584698,3.84579396247864,1614890040.75753,0.0542280673980713,1614890044.61167,h023.png,1614890044.60899,high_cue,1.60105109214783,75.4486235438405,FIX,1614890047.61101,1614890047.6101198,1614890049.21117,0,0,0,,,,0,0,Command Recieved: TRIGGER_AND_Response: RESULT_OK,,,1614890053.85839,1614890053.85803,high_stim,2.63459658622742,68.5828336470583,FIX,1614890066.81755,1614890066.8173802,1614890069.4519699,6,1,1,high_cue,1614890177.36031,1614890177.35912,398.533571720123,5,1614889778.82641,high_stim,pain,1614889778.82555,1,7,45
1614890076.52233,1.7821898460388201,1614890076.52104,1614890082.3410199,10.5633263587952,1614890082.3399,1614890101.9154599,3.8892674446105997,1614890101.91396,1614890070.84498,4.66777038574219,1614890070.8355598,0.0604119300842285,1614890075.52177,h035.png,1614890075.52066,high_cue,2.23940110206604,72.8802844380528,FIX,1614890078.32197,1614890078.32172,1614890080.56112,0,0,0,,,,0,0,Command Recieved: TRIGGER_AND_Response: RESULT_OK,,,1614890092.96451,1614890092.9642,low_stim,2.6177120208740203,50.37099469553571,FIX,1614890105.8158,1614890105.81544,1614890108.43315,4,1,1,high_cue,1614890177.36031,1614890177.35912,398.533571720123,5,1614889778.82641,low_stim,pain,1614889778.82555,1,7,46
1614890112.51904,1.88526248931885,1614890112.5179698,1614890118.43782,4.86636137962341,1614890118.4368699,1614890132.3122,4.9944555759429905,1614890132.30877,1614890109.85127,1.65303254127502,1614890109.85029,0.0492308139801025,1614890111.51877,h039.png,1614890111.51759,high_cue,1.86766266822815,74.56247582346809,FIX,1614890114.419,1614890114.4186802,1614890116.28635,0,0,0,,,,0,0,Command Recieved: TRIGGER_AND_Response: RESULT_OK,,,1614890123.35354,1614890123.35311,low_stim,2.20103716850281,48.6173331368822,FIX,1614890137.31142,1614890137.31066,1614890139.5117,4,1,1,high_cue,1614890177.36031,1614890177.35912,398.533571720123,5,1614889778.82641,low_stim,pain,1614889778.82555,1,7,47
1614890145.1147301,0.8896212577819821,1614890145.11361,1614890150.03319,7.57109594345093,1614890150.03213,1614890166.6226401,6.68149828910828,1614890166.62173,1614890141.32941,2.77448129653931,1614890141.32885,0.066288948059082,1614890144.1145802,l041.png,1614890144.11323,low_cue,2.7679264545440696,53.9557649969273,FIX,1614890146.01413,1614890146.01395,1614890148.78187,0,0,0,,,,0,0,Command Recieved: TRIGGER_AND_Response: RESULT_OK,,,1614890157.67051,1614890157.67011,med_stim,,,FIX,1614890173.32448,1614890173.32426,,2,1,1,low_cue,1614890177.36031,1614890177.35912,398.533571720123,5,1614889778.82641,med_stim,pain,1614889778.82555,1,7,48
1614887986.83583,1.3824098110199,1614887986.832,1614887992.26907,4.547021865844731,1614887992.26739,1614888005.83551,2.39190030097961,1614888005.82251,1614887983.83761,1.98411107063293,1614887983.83087,0.0522360801696777,1614887985.83659,h054.png,1614887985.83162,high_cue,2.3520085811615,63.639941792646894,FIX,1614887988.2511802,1614887988.2492,1614887990.6012099,0,0,0,,,,0,0,Command Recieved: TRIGGER_AND_Response: RESULT_OK,,,1614887996.8845,1614887996.88396,low_stim,2.9182329177856405,72.8802844380528,FIX,1614888008.23496,1614888008.22342,1614888011.14165,4,2,1,high_cue,1614888379.15383,1614888379.14687,398.116049528122,1,1614887981.0341802,low_stim,pain,1614887981.03082,1,7,49
1614888015.1363,0.788385629653931,1614888015.12602,1614888019.9460402,5.26989936828613,1614888019.94451,1614888034.2358599,2.88116502761841,1614888034.2332401,1614888012.33588,1.78976082801819,1614888012.32497,0.0905919075012207,1614888014.13573,l028.png,1614888014.12565,low_cue,2.5249581336975098,7.894041031479841,FIX,1614888015.9351199,1614888015.92633,1614888018.45128,0,0,0,,,,0,0,Command Recieved: TRIGGER_AND_Response: RESULT_OK,,,1614888025.30599,1614888025.3055599,low_stim,2.5345294475555398,51.519801751657,FIX,1614888037.13489,1614888037.13434,1614888039.66887,1,2,1,low_cue,1614888379.15383,1614888379.14687,398.116049528122,1,1614887981.0341802,low_stim,pain,1614887981.03082,1,7,50
1614888043.12095,1.09447693824768,1614888043.11993,1614888048.25661,2.5592029094696,1614888048.25521,1614888059.8369,2.58816528320312,1614888059.82624,1614888041.16981,0.945533514022827,1614888041.1692,0.0771009922027588,1614888042.1363099,l002.png,1614888042.11956,low_cue,2.7513828277587904,4.84011248884704,FIX,1614888044.25196,1614888044.23702,1614888046.98841,0,0,0,,,,0,0,Command Recieved: TRIGGER_AND_Response: RESULT_OK,,,1614888050.8928,1614888050.89222,med_stim,2.90833592414856,84.70143493010009,FIX,1614888062.43517,1614888062.4272301,1614888065.3355598,2,2,1,low_cue,1614888379.15383,1614888379.14687,398.116049528122,1,1614887981.0341802,med_stim,pain,1614887981.03082,1,7,51
1614888068.5309699,2.08487701416016,1614888068.52953,1614888074.65222,5.16589951515198,1614888074.64851,1614888088.83635,2.2938785552978502,1614888088.8205302,1614888066.4693,1.05264925956726,1614888066.46209,0.0398859977722168,1614888067.53592,l042.png,1614888067.52916,low_cue,,,FIX,1614888070.63509,1614888070.63033,,0,0,0,,,,0,0,Command Recieved: TRIGGER_AND_Response: RESULT_OK,,,1614888079.85586,1614888079.85512,high_stim,1.56745719909668,75.90640341858379,FIX,1614888091.13847,1614888091.1380699,1614888092.7055302,3,2,1,low_cue,1614888379.15383,1614888379.14687,398.116049528122,1,1614887981.0341802,high_stim,pain,1614887981.03082,1,7,52
1614888096.82562,1.39085555076599,1614888096.82356,1614888102.2440698,1.3721423149108898,1614888102.24227,1614888112.63691,2.28488397598267,1614888112.6295302,1614888095.17563,0.642421722412109,1614888095.17293,0.0329689979553223,1614888095.83749,h024.png,1614888095.82318,high_cue,2.16091442108154,113.41433476381,FIX,1614888098.23529,1614888098.22408,1614888100.385,0,0,0,,,,0,0,Command Recieved: TRIGGER_AND_Response: RESULT_OK,,,1614888103.65193,1614888103.64948,med_stim,1.55476236343384,77.52092819807241,FIX,1614888114.93504,1614888114.9304,1614888116.4851599,5,2,1,high_cue,1614888379.15383,1614888379.14687,398.116049528122,1,1614887981.0341802,med_stim,pain,1614887981.03082,1,7,53
1614888120.5336301,1.08189821243286,1614888120.53251,1614888125.65296,1.26329708099365,1614888125.65111,1614888135.92215,2.6927509307861297,1614888135.92166,1614888118.98584,0.5325806140899659,1614888118.98193,0.0583188533782959,1614888119.53315,h050.png,1614888119.53213,high_cue,1.51886415481567,60.577825774311,FIX,1614888121.63525,1614888121.63293,1614888123.1517901,0,0,0,,,,0,0,Command Recieved: TRIGGER_AND_Response: RESULT_OK,,,1614888126.97437,1614888126.9735599,high_stim,2.66793656349182,83.5325410722085,FIX,1614888138.63545,1614888138.6226802,1614888141.2906199,6,2,1,high_cue,1614888379.15383,1614888379.14687,398.116049528122,1,1614887981.0341802,high_stim,pain,1614887981.03082,1,7,54
1614888145.52629,1.08912420272827,1614888145.52529,1614888150.64468,6.77052211761475,1614888150.6438901,1614888166.43436,12.181224822997999,1614888166.43319,1614888142.65269,1.87365078926086,1614888142.6408598,0.0456779003143311,1614888144.52613,h025.png,1614888144.52491,high_cue,1.67615175247192,84.93057986738751,FIX,1614888146.6356301,1614888146.6257,1614888148.3018599,0,0,0,,,,0,0,Command Recieved: TRIGGER_AND_Response: RESULT_OK,,,1614888157.46115,1614888157.46073,low_stim,2.63448858261108,73.34569362307671,FIX,1614888178.63559,1614888178.62112,1614888181.25561,4,2,1,high_cue,1614888379.15383,1614888379.14687,398.116049528122,1,1614887981.0341802,low_stim,pain,1614887981.03082,1,7,55
1614888191.4270802,1.08844971656799,1614888191.42596,1614888196.54576,0.869849920272827,1614888196.54456,1614888206.43258,4.28278255462646,1614888206.4316301,1614888182.65294,7.77525591850281,1614888182.63931,0.0602560043334961,1614888190.4265802,h023.png,1614888190.42558,high_cue,1.57572221755981,63.02349607893029,FIX,1614888192.53555,1614888192.52638,1614888194.1021,0,0,0,,,,0,0,Command Recieved: TRIGGER_AND_Response: RESULT_OK,,,1614888197.47587,1614888197.4754,high_stim,1.91892075538635,84.4724598483438,FIX,1614888210.73571,1614888210.73325,1614888212.65217,6,2,1,high_cue,1614888379.15383,1614888379.14687,398.116049528122,1,1614887981.0341802,high_stim,pain,1614887981.03082,1,7,56
1614888216.6199,2.0956010818481396,1614888216.61881,1614888222.75556,8.75995016098022,1614888222.7544599,1614888240.52913,5.58656716346741,1614888240.5278401,1614888214.7526,0.863064050674438,1614888214.75144,0.0453369617462158,1614888215.61999,l014.png,1614888215.6184301,low_cue,1.88430380821228,38.8035865708957,FIX,1614888218.73664,1614888218.73628,1614888220.6205802,0,0,0,,,,0,0,Command Recieved: TRIGGER_AND_Response: RESULT_OK,,,1614888231.5609698,1614888231.56045,low_stim,2.2891263961792,47.6324348689865,FIX,1614888246.1356401,1614888246.12996,1614888248.41909,1,2,1,low_cue,1614888379.15383,1614888379.14687,398.116049528122,1,1614887981.0341802,low_stim,pain,1614887981.03082,1,7,57
1614888253.03424,2.08184361457825,1614888253.03257,1614888259.15339,5.2628664970397905,1614888259.15154,1614888273.42454,4.190809249877931,1614888273.4236,1614888250.1529,1.86637187004089,1614888250.14814,0.0821459293365479,1614888252.03344,l018.png,1614888252.03219,low_cue,1.46903657913208,20.1794586645109,FIX,1614888255.13591,1614888255.13336,1614888256.6024,0,0,0,,,,0,0,Command Recieved: TRIGGER_AND_Response: RESULT_OK,,,1614888264.4972901,1614888264.49704,med_stim,2.0608012676239,68.3768038720954,FIX,1614888277.6359,1614888277.62519,1614888279.68599,2,2,1,low_cue,1614888379.15383,1614888379.14687,398.116049528122,1,1614887981.0341802,med_stim,pain,1614887981.03082,1,7,58
1614888299.6345599,1.3809072971344,1614888299.6335,1614888305.05355,1.36219549179077,1614888305.0522199,1614888315.42379,2.6916089057922403,1614888315.4228,1614888281.66116,16.9544639587402,1614888281.66005,0.0368449687957764,1614888298.63474,l001.png,1614888298.6331198,low_cue,2.36863231658936,4.592212010919769,FIX,1614888301.03605,1614888301.03403,1614888303.40266,0,0,0,,,,0,0,Command Recieved: TRIGGER_AND_Response: RESULT_OK,,,1614888306.45204,1614888306.45176,high_stim,2.61784934997559,68.7971813561903,FIX,1614888318.13652,1614888318.1238198,1614888320.74167,3,2,1,low_cue,1614888379.15383,1614888379.14687,398.116049528122,1,1614887981.0341802,high_stim,pain,1614887981.03082,1,7,59
1614888340.13313,2.08227610588074,1614888340.1321301,1614888346.2537699,10.2632994651794,1614888346.25111,1614888365.52601,9.58935117721558,1614888365.52506,1614888322.1538,16.9725019931793,1614888322.1420002,0.0398941040039062,1614888339.1329901,h010.png,1614888339.13176,high_cue,2.30331444740295,70.2531633945739,FIX,1614888342.23632,1614888342.2329302,1614888344.53624,0,0,0,,,,0,0,Command Recieved: TRIGGER_AND_Response: RESULT_OK,,,1614888356.5558,1614888356.55522,med_stim,1.9578001499176,62.8188889145228,FIX,1614888375.1365302,1614888375.12869,1614888377.0864902,5,2,1,high_cue,1614888379.15383,1614888379.14687,398.116049528122,1,1614887981.0341802,med_stim,pain,1614887981.03082,1,7,60
