onset	duration	trial_type	trial_index	cue	stimulusintensity	rating_value	rating_glmslabel	rating_value_fillna	rating_glmslabel_fillna	rating_mouseonset	rating_mousedur	stim_file	correct_response	participant_response	response_accuracy
9.79	0.99	cue	1	high_cue	n/a	n/a	n/a	n/a	n/a	n/a	n/a	h051.png	n/a	n/a	n/a
41.5	0.98	cue	2	high_cue	n/a	n/a	n/a	n/a	n/a	n/a	n/a	h023.png	n/a	n/a	n/a
67.4	0.99	cue	3	low_cue	n/a	n/a	n/a	n/a	n/a	n/a	n/a	l013.png	n/a	n/a	n/a
96.79	1.0	cue	4	high_cue	n/a	n/a	n/a	n/a	n/a	n/a	n/a	h006.png	n/a	n/a	n/a
128.4	0.98	cue	5	high_cue	n/a	n/a	n/a	n/a	n/a	n/a	n/a	h003.png	n/a	n/a	n/a
171.0	0.98	cue	6	low_cue	n/a	n/a	n/a	n/a	n/a	n/a	n/a	l012.png	n/a	n/a	n/a
198.3	0.99	cue	7	low_cue	n/a	n/a	n/a	n/a	n/a	n/a	n/a	l055.png	n/a	n/a	n/a
234.89	0.99	cue	8	low_cue	n/a	n/a	n/a	n/a	n/a	n/a	n/a	l005.png	n/a	n/a	n/a
262.2	0.98	cue	9	high_cue	n/a	n/a	n/a	n/a	n/a	n/a	n/a	h040.png	n/a	n/a	n/a
291.1	0.99	cue	10	low_cue	n/a	n/a	n/a	n/a	n/a	n/a	n/a	l019.png	n/a	n/a	n/a
336.6	0.99	cue	11	high_cue	n/a	n/a	n/a	n/a	n/a	n/a	n/a	h022.png	n/a	n/a	n/a
371.59	0.99	cue	12	low_cue	n/a	n/a	n/a	n/a	n/a	n/a	n/a	l035.png	n/a	n/a	n/a
12.54	1.65	expectrating	1	high_cue	n/a	71.64	Very Strong	71.64	Very Strong	0.53	1.12	h051.png	n/a	n/a	n/a
43.0	1.93	expectrating	2	high_cue	n/a	53.36	Strong	53.36	Strong	0.48	1.45	h023.png	n/a	n/a	n/a
69.51	1.41	expectrating	3	low_cue	n/a	13.13	Moderate	13.13	Moderate	0.3	1.11	l013.png	n/a	n/a	n/a
100.71	1.6	expectrating	4	high_cue	n/a	63.22	Strong	63.22	Strong	0.6	1.0	h006.png	n/a	n/a	n/a
132.3	1.67	expectrating	5	high_cue	n/a	53.46	Strong	53.46	Strong	0.4	1.27	h003.png	n/a	n/a	n/a
174.9	1.35	expectrating	6	low_cue	n/a	16.79	Moderate	16.79	Moderate	0.35	1.0	l012.png	n/a	n/a	n/a
199.8	2.42	expectrating	7	low_cue	n/a	5.3	Weak	5.3	Weak	0.7	1.72	l055.png	n/a	n/a	n/a
237.01	1.32	expectrating	8	low_cue	n/a	7.93	Weak	7.93	Weak	0.37	0.95	l005.png	n/a	n/a	n/a
264.9	1.92	expectrating	9	high_cue	n/a	36.82	Strong	36.82	Strong	0.4	1.52	h040.png	n/a	n/a	n/a
293.3	1.8	expectrating	10	low_cue	n/a	13.4	Moderate	13.4	Moderate	0.33	1.47	l019.png	n/a	n/a	n/a
338.3	1.89	expectrating	11	high_cue	n/a	53.18	Strong	53.18	Strong	0.37	1.52	h022.png	n/a	n/a	n/a
373.39	1.66	expectrating	12	low_cue	n/a	16.46	Moderate	16.46	Moderate	0.32	1.34	l035.png	n/a	n/a	n/a
24.21	6.99	stimulus	1	high_cue	med_stim	n/a	n/a	n/a	n/a	n/a	n/a	14_100.jpg	same	same	True
51.11	6.99	stimulus	2	high_cue	high_stim	n/a	n/a	n/a	n/a	n/a	n/a	28_150.jpg	same	same	True
77.7	7.0	stimulus	3	low_cue	high_stim	n/a	n/a	n/a	n/a	n/a	n/a	28_150_R.jpg	diff	diff	True
110.9	7.0	stimulus	4	high_cue	low_stim	n/a	n/a	n/a	n/a	n/a	n/a	44_50_R.jpg	diff	diff	True
147.01	6.99	stimulus	5	high_cue	med_stim	n/a	n/a	n/a	n/a	n/a	n/a	27_100.jpg	same	same	True
181.81	6.99	stimulus	6	low_cue	low_stim	n/a	n/a	n/a	n/a	n/a	n/a	22_50_R.jpg	diff	diff	True
210.1	7.0	stimulus	7	low_cue	med_stim	n/a	n/a	n/a	n/a	n/a	n/a	27_100_R.jpg	diff	diff	True
246.3	7.0	stimulus	8	low_cue	med_stim	n/a	n/a	n/a	n/a	n/a	n/a	28_100_R.jpg	diff	diff	True
274.21	6.99	stimulus	9	high_cue	high_stim	n/a	n/a	n/a	n/a	n/a	n/a	26_150.jpg	same	same	True
308.0	7.0	stimulus	10	low_cue	low_stim	n/a	n/a	n/a	n/a	n/a	n/a	27_50_R.jpg	diff	diff	True
354.0	7.0	stimulus	11	high_cue	low_stim	n/a	n/a	n/a	n/a	n/a	n/a	7_50_R.jpg	diff	diff	True
380.3	7.0	stimulus	12	low_cue	high_stim	n/a	n/a	n/a	n/a	n/a	n/a	19_150.jpg	same	same	True
33.0	3.14	outcomerating	1	high_cue	med_stim	42.07	Strong	42.07	Strong	0.5	2.64	task-cognitive_scale.png	n/a	n/a	n/a
59.51	1.93	outcomerating	2	high_cue	high_stim	55.99	Strong	55.99	Strong	0.35	1.58	task-cognitive_scale.png	n/a	n/a	n/a
87.5	1.88	outcomerating	3	low_cue	high_stim	48.62	Strong	48.62	Strong	0.45	1.43	task-cognitive_scale.png	n/a	n/a	n/a
119.32	2.0	outcomerating	4	high_cue	low_stim	26.15	Moderate	26.15	Moderate	0.4	1.6	task-cognitive_scale.png	n/a	n/a	n/a
156.81	2.87	outcomerating	5	high_cue	med_stim	58.6	Strong	58.6	Strong	0.45	2.42	task-cognitive_scale.png	n/a	n/a	n/a
191.71	2.07	outcomerating	6	low_cue	low_stim	30.84	Strong	30.84	Strong	0.38	1.68	task-cognitive_scale.png	n/a	n/a	n/a
228.91	2.53	outcomerating	7	low_cue	med_stim	21.5	Moderate	21.5	Moderate	0.1	2.43	task-cognitive_scale.png	n/a	n/a	n/a
256.2	2.1	outcomerating	8	low_cue	med_stim	40.78	Strong	40.78	Strong	0.32	1.79	task-cognitive_scale.png	n/a	n/a	n/a
285.79	2.49	outcomerating	9	high_cue	high_stim	34.84	Strong	34.84	Strong	0.97	1.52	task-cognitive_scale.png	n/a	n/a	n/a
323.01	2.3	outcomerating	10	low_cue	low_stim	36.18	Strong	36.18	Strong	0.68	1.62	task-cognitive_scale.png	n/a	n/a	n/a
367.11	1.65	outcomerating	11	high_cue	low_stim	14.37	Moderate	14.37	Moderate	0.3	1.35	task-cognitive_scale.png	n/a	n/a	n/a
394.8	2.82	outcomerating	12	low_cue	high_stim	16.1	Moderate	16.1	Moderate	1.2	1.62	task-cognitive_scale.png	n/a	n/a	n/a
