onset	duration	trial_type	trial_index	cue	stimulusintensity	rating_value	rating_glmslabel	rating_value_fillna	rating_glmslabel_fillna	rating_mouseonset	rating_mousedur	stim_file
3.39	0.98	cue	1	low_cue	n/a	n/a	n/a	n/a	n/a	n/a	n/a	l026.png
45.99	0.98	cue	2	high_cue	n/a	n/a	n/a	n/a	n/a	n/a	n/a	h018.png
80.69	0.98	cue	3	low_cue	n/a	n/a	n/a	n/a	n/a	n/a	n/a	l045.png
110.28	0.99	cue	4	low_cue	n/a	n/a	n/a	n/a	n/a	n/a	n/a	l022.png
143.78	0.99	cue	5	high_cue	n/a	n/a	n/a	n/a	n/a	n/a	n/a	h035.png
171.29	0.98	cue	6	high_cue	n/a	n/a	n/a	n/a	n/a	n/a	n/a	h042.png
201.08	0.99	cue	7	high_cue	n/a	n/a	n/a	n/a	n/a	n/a	n/a	h004.png
234.78	0.99	cue	8	low_cue	n/a	n/a	n/a	n/a	n/a	n/a	n/a	l051.png
265.09	0.98	cue	9	low_cue	n/a	n/a	n/a	n/a	n/a	n/a	n/a	l048.png
295.49	0.99	cue	10	low_cue	n/a	n/a	n/a	n/a	n/a	n/a	n/a	l050.png
337.88	0.99	cue	11	high_cue	n/a	n/a	n/a	n/a	n/a	n/a	n/a	h016.png
362.58	1.0	cue	12	high_cue	n/a	n/a	n/a	n/a	n/a	n/a	n/a	h039.png
6.09	1.68	expectrating	1	low_cue	n/a	5.76	Weak	5.76	Weak	0.1	1.58	l026.png
49.09	1.27	expectrating	2	high_cue	n/a	47.76	Strong	47.76	Strong	0.63	0.64	h018.png
83.79	2.22	expectrating	3	low_cue	n/a	4.18	Weak	4.18	Weak	0.38	1.84	l045.png
111.78	2.77	expectrating	4	low_cue	n/a	26.24	Moderate	26.24	Moderate	0.63	2.13	l022.png
146.9	2.6	expectrating	5	high_cue	n/a	57.46	Strong	57.46	Strong	0.48	2.12	h035.png
173.29	2.62	expectrating	6	high_cue	n/a	73.39	Very Strong	73.39	Very Strong	0.57	2.06	h042.png
203.08	1.35	expectrating	7	high_cue	n/a	64.06	Very Strong	64.06	Very Strong	0.37	0.98	h004.png
237.3	1.42	expectrating	8	low_cue	n/a	9.89	Weak	9.89	Weak	0.55	0.87	l051.png
268.19	1.54	expectrating	9	low_cue	n/a	11.17	Moderate	11.17	Moderate	0.42	1.12	l048.png
297.39	1.79	expectrating	10	low_cue	n/a	11.63	Moderate	11.63	Moderate	0.28	1.51	l050.png
340.59	2.03	expectrating	11	high_cue	n/a	65.85	Very Strong	65.85	Very Strong	0.42	1.61	h016.png
364.79	1.78	expectrating	12	high_cue	n/a	71.57	Very Strong	71.57	Very Strong	0.52	1.27	h039.png
18.48	7.01	stimulus	1	low_cue	high_stim	n/a	n/a	n/a	n/a	n/a	n/a	kz120t2aaaff_H.mp4
59.58	7.01	stimulus	2	high_cue	med_stim	n/a	n/a	n/a	n/a	n/a	n/a	jh123t2aaaff_M.mp4
90.28	7.0	stimulus	3	low_cue	low_stim	n/a	n/a	n/a	n/a	n/a	n/a	aa048t2aaunaff_L.mp4
118.58	7.01	stimulus	4	low_cue	low_stim	n/a	n/a	n/a	n/a	n/a	n/a	kz120t2aaunaff_L.mp4
156.58	7.01	stimulus	5	high_cue	low_stim	n/a	n/a	n/a	n/a	n/a	n/a	jh123t1aaunaff_L.mp4
179.78	7.0	stimulus	6	high_cue	med_stim	n/a	n/a	n/a	n/a	n/a	n/a	kz120t2aeaff_M.mp4
216.08	7.02	stimulus	7	high_cue	low_stim	n/a	n/a	n/a	n/a	n/a	n/a	tv095t2aeunaff_L.mp4
251.28	7.01	stimulus	8	low_cue	high_stim	n/a	n/a	n/a	n/a	n/a	n/a	mg066t1aaaff_H.mp4
279.88	7.01	stimulus	9	low_cue	med_stim	n/a	n/a	n/a	n/a	n/a	n/a	dr052t2aaaff_M.mp4
311.08	7.0	stimulus	10	low_cue	med_stim	n/a	n/a	n/a	n/a	n/a	n/a	th108t2aaunaff_M.mp4
347.98	7.02	stimulus	11	high_cue	high_stim	n/a	n/a	n/a	n/a	n/a	n/a	tv095t1afaff_H.mp4
378.48	7.01	stimulus	12	high_cue	high_stim	n/a	n/a	n/a	n/a	n/a	n/a	aa048t2aeaff_H.mp4
32.6	1.62	outcomerating	1	low_cue	high_stim	5.09	Weak	5.09	Weak	0.45	1.17	task-vicarious_scale.png
75.99	1.48	outcomerating	2	high_cue	med_stim	41.42	Strong	41.42	Strong	0.47	1.01	task-vicarious_scale.png
97.8	3.22	outcomerating	3	low_cue	low_stim	16.36	Moderate	16.36	Moderate	0.5	2.72	task-vicarious_scale.png
134.69	1.7	outcomerating	4	low_cue	low_stim	22.87	Moderate	22.87	Moderate	0.53	1.17	task-vicarious_scale.png
166.59	2.09	outcomerating	5	high_cue	low_stim	16.59	Moderate	16.59	Moderate	0.05	2.04	task-vicarious_scale.png
189.6	2.35	outcomerating	6	high_cue	med_stim	33.31	Strong	33.31	Strong	1.28	1.07	task-vicarious_scale.png
226.69	1.92	outcomerating	7	high_cue	low_stim	16.23	Moderate	16.23	Moderate	0.53	1.39	task-vicarious_scale.png
260.39	3.56	outcomerating	8	low_cue	high_stim	15.85	Moderate	15.85	Moderate	0.55	3.01	task-vicarious_scale.png
290.0	1.33	outcomerating	9	low_cue	med_stim	44.51	Strong	44.51	Strong	0.4	0.93	task-vicarious_scale.png
321.7		outcomerating	10	low_cue	med_stim					3.9	0.08	task-vicarious_scale.png
355.49	2.65	outcomerating	11	high_cue	high_stim	76.97	Very Strong	76.97	Very Strong	0.55	2.1	task-vicarious_scale.png
394.59	2.94	outcomerating	12	high_cue	high_stim	6.51	Weak	6.51	Weak	0.62	2.32	task-vicarious_scale.png
