onset	duration	trial_type	trial_index	cue	stimulusintensity	rating_value	rating_glmslabel	rating_value_fillna	rating_glmslabel_fillna	rating_mouseonset	rating_mousedur	stim_file
4.09	0.98	cue	1	high_cue	n/a	n/a	n/a	n/a	n/a	n/a	n/a	h012.png
33.49	0.99	cue	2	low_cue	n/a	n/a	n/a	n/a	n/a	n/a	n/a	l043.png
71.58	0.99	cue	3	high_cue	n/a	n/a	n/a	n/a	n/a	n/a	n/a	h017.png
105.58	0.99	cue	4	high_cue	n/a	n/a	n/a	n/a	n/a	n/a	n/a	h033.png
132.79	0.98	cue	5	high_cue	n/a	n/a	n/a	n/a	n/a	n/a	n/a	h026.png
163.29	0.99	cue	6	high_cue	n/a	n/a	n/a	n/a	n/a	n/a	n/a	h021.png
196.88	0.99	cue	7	low_cue	n/a	n/a	n/a	n/a	n/a	n/a	n/a	l008.png
231.39	0.98	cue	8	low_cue	n/a	n/a	n/a	n/a	n/a	n/a	n/a	l025.png
270.39	0.98	cue	9	high_cue	n/a	n/a	n/a	n/a	n/a	n/a	n/a	h007.png
297.69	0.99	cue	10	low_cue	n/a	n/a	n/a	n/a	n/a	n/a	n/a	l024.png
327.18	0.99	cue	11	low_cue	n/a	n/a	n/a	n/a	n/a	n/a	n/a	l041.png
372.58	0.99	cue	12	low_cue	n/a	n/a	n/a	n/a	n/a	n/a	n/a	l030.png
7.19		expectrating	1	high_cue	n/a			28.54	Moderate	0.65	3.53	h012.png
36.59	3.72	expectrating	2	low_cue	n/a	3.03	Weak	3.03	Weak	1.05	2.67	l043.png
73.58	3.6	expectrating	3	high_cue	n/a	62.91	Strong	62.91	Strong	1.43	2.17	h017.png
108.7	3.52	expectrating	4	high_cue	n/a	65.59	Very Strong	65.59	Very Strong	0.63	2.88	h033.png
135.89	2.72	expectrating	5	high_cue	n/a	51.52	Strong	51.52	Strong	0.5	2.22	h026.png
165.29		expectrating	6	high_cue	n/a			74.09	Very Strong	1.33	3.93	h021.png
199.28	1.4	expectrating	7	low_cue	n/a	0.69	No sensation	0.69	No sensation	0.07	1.33	l008.png
234.29		expectrating	8	low_cue	n/a			4.67	Weak	0.48	3.98	l025.png
272.19		expectrating	9	high_cue	n/a			31.91	Strong	1.38	3.87	h007.png
300.19	2.03	expectrating	10	low_cue	n/a	5.3	Weak	5.3	Weak	0.45	1.58	l024.png
329.1	3.42	expectrating	11	low_cue	n/a	6.01	Weak	6.01	Weak	0.43	2.98	l041.png
374.6	1.73	expectrating	12	low_cue	n/a	0.69	No sensation	0.69	No sensation	0.6	1.13	l030.png
14.48	7.0	stimulus	1	high_cue	med_stim	n/a	n/a	n/a	n/a	n/a	n/a	jy115t1aeaff_M.mp4
49.48	7.02	stimulus	2	low_cue	low_stim	n/a	n/a	n/a	n/a	n/a	n/a	jy115t1aaunaff_L.mp4
86.48	7.02	stimulus	3	high_cue	low_stim	n/a	n/a	n/a	n/a	n/a	n/a	dr052t1aeunaff_L.mp4
119.88	7.01	stimulus	4	high_cue	high_stim	n/a	n/a	n/a	n/a	n/a	n/a	jh123t1aeaff_H.mp4
143.18	7.0	stimulus	5	high_cue	low_stim	n/a	n/a	n/a	n/a	n/a	n/a	mg066t2aeunaff_L.mp4
176.48	7.02	stimulus	6	high_cue	med_stim	n/a	n/a	n/a	n/a	n/a	n/a	tv095t2afaff_M.mp4
207.88	7.01	stimulus	7	low_cue	high_stim	n/a	n/a	n/a	n/a	n/a	n/a	dr052t1aiaff_H.mp4
242.88	7.01	stimulus	8	low_cue	med_stim	n/a	n/a	n/a	n/a	n/a	n/a	aa048t2afunaff_M.mp4
280.78	7.0	stimulus	9	high_cue	high_stim	n/a	n/a	n/a	n/a	n/a	n/a	jy115t2aaaff_H.mp4
308.28	7.02	stimulus	10	low_cue	med_stim	n/a	n/a	n/a	n/a	n/a	n/a	mg066t2aaunaff_M.mp4
346.58	7.01	stimulus	11	low_cue	low_stim	n/a	n/a	n/a	n/a	n/a	n/a	th108t1aaunaff_L.mp4
386.38	7.01	stimulus	12	low_cue	high_stim	n/a	n/a	n/a	n/a	n/a	n/a	th108t1aeaff_H.mp4
23.7	1.93	outcomerating	1	high_cue	med_stim	63.02	Strong	63.02	Strong	0.28	1.65	task-vicarious_scale.png
62.4	3.53	outcomerating	2	low_cue	low_stim	5.05	Weak	5.05	Weak	0.42	3.12	task-vicarious_scale.png
97.09	2.89	outcomerating	3	high_cue	low_stim	14.71	Moderate	14.71	Moderate	0.4	2.49	task-vicarious_scale.png
127.49	3.81	outcomerating	4	high_cue	high_stim	75.11	Very Strong	75.11	Very Strong	0.43	3.37	task-vicarious_scale.png
152.4	1.35	outcomerating	5	high_cue	low_stim	41.65	Strong	41.65	Strong	0.08	1.27	task-vicarious_scale.png
184.49	2.17	outcomerating	6	high_cue	med_stim	63.85	Strong	63.85	Strong	0.33	1.84	task-vicarious_scale.png
224.39	3.15	outcomerating	7	low_cue	high_stim	83.56	Very Strong	83.56	Very Strong	0.48	2.67	task-vicarious_scale.png
256.99		outcomerating	8	low_cue	med_stim			0.0		0.23	3.73	task-vicarious_scale.png
292.4	3.48	outcomerating	9	high_cue	high_stim	58.92	Strong	58.92	Strong	0.48	3.0	task-vicarious_scale.png
317.99	3.35	outcomerating	10	low_cue	med_stim	18.0	Moderate	18.0	Moderate	0.43	2.92	task-vicarious_scale.png
366.99		outcomerating	11	low_cue	low_stim			7.64	Weak	0.9	2.75	task-vicarious_scale.png
394.39	2.53	outcomerating	12	low_cue	high_stim	80.5	Very Strong	80.5	Very Strong	0.4	2.13	task-vicarious_scale.png
