onset	duration	trial_type	trial_index	cue	stimulusintensity	rating_value	rating_glmslabel	rating_value_fillna	rating_glmslabel_fillna	rating_mouseonset	rating_mousedur	stim_file
10.58	0.99	cue	1	low_cue	n/a	n/a	n/a	n/a	n/a	n/a	n/a	l009.png
35.69	0.98	cue	2	low_cue	n/a	n/a	n/a	n/a	n/a	n/a	n/a	l046.png
61.28	0.99	cue	3	low_cue	n/a	n/a	n/a	n/a	n/a	n/a	n/a	l033.png
91.29	0.98	cue	4	low_cue	n/a	n/a	n/a	n/a	n/a	n/a	n/a	l027.png
119.99	0.99	cue	5	high_cue	n/a	n/a	n/a	n/a	n/a	n/a	n/a	h051.png
153.88	0.99	cue	6	high_cue	n/a	n/a	n/a	n/a	n/a	n/a	n/a	h045.png
194.18	0.99	cue	7	high_cue	n/a	n/a	n/a	n/a	n/a	n/a	n/a	h041.png
219.19	0.98	cue	8	high_cue	n/a	n/a	n/a	n/a	n/a	n/a	n/a	h014.png
251.39	0.99	cue	9	high_cue	n/a	n/a	n/a	n/a	n/a	n/a	n/a	h043.png
285.78	0.99	cue	10	high_cue	n/a	n/a	n/a	n/a	n/a	n/a	n/a	h013.png
326.18	0.99	cue	11	low_cue	n/a	n/a	n/a	n/a	n/a	n/a	n/a	l040.png
366.38	0.99	cue	12	low_cue	n/a	n/a	n/a	n/a	n/a	n/a	n/a	l051.png
12.32	1.61	expectrating	1	low_cue	n/a	26.88	Moderate	26.88	Moderate	0.38	1.23	l009.png
37.99	2.32	expectrating	2	low_cue	n/a	21.98	Moderate	21.98	Moderate	0.42	1.9	l046.png
64.18	2.06	expectrating	3	low_cue	n/a	9.66	Weak	9.66	Weak	0.42	1.64	l033.png
93.7	2.52	expectrating	4	low_cue	n/a	3.97	Weak	3.97	Weak	1.03	1.48	l027.png
122.89	1.73	expectrating	5	high_cue	n/a	56.12	Strong	56.12	Strong	0.43	1.3	h051.png
155.79	1.87	expectrating	6	high_cue	n/a	79.37	Very Strong	79.37	Very Strong	0.68	1.19	h045.png
196.98	2.17	expectrating	7	high_cue	n/a	28.87	Moderate	28.87	Moderate	0.43	1.74	h041.png
222.09	1.68	expectrating	8	high_cue	n/a	26.98	Moderate	26.98	Moderate	0.42	1.27	h014.png
253.79	1.79	expectrating	9	high_cue	n/a	39.53	Strong	39.53	Strong	0.5	1.29	h043.png
288.99	1.77	expectrating	10	high_cue	n/a	49.25	Strong	49.25	Strong	0.72	1.06	h013.png
328.08	1.79	expectrating	11	low_cue	n/a	6.03	Weak	6.03	Weak	0.77	1.03	l040.png
369.2	1.18	expectrating	12	low_cue	n/a	11.21	Moderate	11.21	Moderate	0.43	0.75	l051.png
23.08	7.01	stimulus	1	low_cue	low_stim	n/a	n/a	n/a	n/a	n/a	n/a	jl047t1aaunaff_L.mp4
45.78	7.02	stimulus	2	low_cue	med_stim	n/a	n/a	n/a	n/a	n/a	n/a	bn080t1aeaff_M.mp4
74.18	7.01	stimulus	3	low_cue	low_stim	n/a	n/a	n/a	n/a	n/a	n/a	jh043t2aaunaff_L.mp4
101.78	7.01	stimulus	4	low_cue	high_stim	n/a	n/a	n/a	n/a	n/a	n/a	mg066t1aaaff_H.mp4
133.78	7.0	stimulus	5	high_cue	med_stim	n/a	n/a	n/a	n/a	n/a	n/a	ib109t1afaff_M.mp4
169.78	7.02	stimulus	6	high_cue	high_stim	n/a	n/a	n/a	n/a	n/a	n/a	jh043t2aeaff_H.mp4
206.18	7.01	stimulus	7	high_cue	med_stim	n/a	n/a	n/a	n/a	n/a	n/a	vw121t1aiaff_M.mp4
234.48	7.01	stimulus	8	high_cue	low_stim	n/a	n/a	n/a	n/a	n/a	n/a	bg096t2afunaff_L.mp4
266.68	7.0	stimulus	9	high_cue	low_stim	n/a	n/a	n/a	n/a	n/a	n/a	bn080t1afunaff_L.mp4
297.98	7.01	stimulus	10	high_cue	high_stim	n/a	n/a	n/a	n/a	n/a	n/a	bn080t1afaff_H.mp4
342.38	7.01	stimulus	11	low_cue	med_stim	n/a	n/a	n/a	n/a	n/a	n/a	mg066t2aaunaff_M.mp4
375.78	7.01	stimulus	12	low_cue	high_stim	n/a	n/a	n/a	n/a	n/a	n/a	ib109t1aiaff_H.mp4
31.11	1.8	outcomerating	1	low_cue	low_stim	24.61	Moderate	24.61	Moderate	0.37	1.44	task-vicarious_scale.png
56.3	2.58	outcomerating	2	low_cue	med_stim	10.09	Moderate	10.09	Moderate	0.38	2.2	task-vicarious_scale.png
86.29	1.82	outcomerating	3	low_cue	low_stim	8.13	Weak	8.13	Weak	0.58	1.23	task-vicarious_scale.png
112.3	2.46	outcomerating	4	low_cue	high_stim	13.31	Moderate	13.31	Moderate	0.52	1.94	task-vicarious_scale.png
142.8	1.56	outcomerating	5	high_cue	med_stim	10.49	Moderate	10.49	Moderate	0.47	1.09	task-vicarious_scale.png
184.2	2.65	outcomerating	6	high_cue	high_stim	43.7	Strong	43.7	Strong	0.43	2.22	task-vicarious_scale.png
214.21	1.55	outcomerating	7	high_cue	med_stim	10.99	Moderate	10.99	Moderate	0.45	1.1	task-vicarious_scale.png
242.7	2.17	outcomerating	8	high_cue	low_stim	22.14	Moderate	22.14	Moderate	0.38	1.79	task-vicarious_scale.png
280.8	2.06	outcomerating	9	high_cue	low_stim	20.42	Moderate	20.42	Moderate	0.73	1.33	task-vicarious_scale.png
311.29	1.73	outcomerating	10	high_cue	high_stim	25.23	Moderate	25.23	Moderate	0.7	1.03	task-vicarious_scale.png
353.29	2.0	outcomerating	11	low_cue	med_stim	15.62	Moderate	15.62	Moderate	0.83	1.17	task-vicarious_scale.png
394.81	2.2	outcomerating	12	low_cue	high_stim	10.94	Moderate	10.94	Moderate	0.48	1.72	task-vicarious_scale.png
