onset	duration	trial_type	trial_index	cue	stimulusintensity	rating_value	rating_glmslabel	rating_value_fillna	rating_glmslabel_fillna	rating_mouseonset	rating_mousedur	stim_file	correct_response	participant_response	response_accuracy
5.49	0.98	cue	1	low_cue	n/a	n/a	n/a	n/a	n/a	n/a	n/a	l029.png	n/a	n/a	n/a
33.79	0.99	cue	2	low_cue	n/a	n/a	n/a	n/a	n/a	n/a	n/a	l025.png	n/a	n/a	n/a
74.18	0.99	cue	3	low_cue	n/a	n/a	n/a	n/a	n/a	n/a	n/a	l039.png	n/a	n/a	n/a
103.78	0.99	cue	4	high_cue	n/a	n/a	n/a	n/a	n/a	n/a	n/a	h038.png	n/a	n/a	n/a
138.27	1.0	cue	5	high_cue	n/a	n/a	n/a	n/a	n/a	n/a	n/a	h021.png	n/a	n/a	n/a
178.09	0.98	cue	6	high_cue	n/a	n/a	n/a	n/a	n/a	n/a	n/a	h045.png	n/a	n/a	n/a
206.68	0.99	cue	7	high_cue	n/a	n/a	n/a	n/a	n/a	n/a	n/a	h012.png	n/a	n/a	n/a
241.98	0.99	cue	8	low_cue	n/a	n/a	n/a	n/a	n/a	n/a	n/a	l045.png	n/a	n/a	n/a
270.79	0.98	cue	9	high_cue	n/a	n/a	n/a	n/a	n/a	n/a	n/a	h029.png	n/a	n/a	n/a
306.49	0.98	cue	10	low_cue	n/a	n/a	n/a	n/a	n/a	n/a	n/a	l001.png	n/a	n/a	n/a
333.48	0.99	cue	11	high_cue	n/a	n/a	n/a	n/a	n/a	n/a	n/a	h036.png	n/a	n/a	n/a
372.08	0.99	cue	12	low_cue	n/a	n/a	n/a	n/a	n/a	n/a	n/a	l051.png	n/a	n/a	n/a
7.49	1.43	expectrating	1	low_cue	n/a	8.55	Weak	8.55	Weak	0.4	1.03	l029.png	n/a	n/a	n/a
36.09	1.21	expectrating	2	low_cue	n/a	17.77	Moderate	17.77	Moderate	0.35	0.86	l025.png	n/a	n/a	n/a
76.48	1.69	expectrating	3	low_cue	n/a	15.23	Moderate	15.23	Moderate	0.38	1.31	l039.png	n/a	n/a	n/a
106.58		expectrating	4	high_cue	n/a			56.63	Strong	3.0	3.77	h038.png	n/a	n/a	n/a
139.99	1.72	expectrating	5	high_cue	n/a	45.49	Strong	45.49	Strong	0.42	1.3	h021.png	n/a	n/a	n/a
179.89	1.64	expectrating	6	high_cue	n/a	55.8	Strong	55.8	Strong	0.47	1.17	h045.png	n/a	n/a	n/a
209.68	2.66	expectrating	7	high_cue	n/a	64.26	Very Strong	64.26	Very Strong	0.33	2.32	h012.png	n/a	n/a	n/a
244.7	1.57	expectrating	8	low_cue	n/a	10.14	Moderate	10.14	Moderate	0.35	1.22	l045.png	n/a	n/a	n/a
273.79	1.73	expectrating	9	high_cue	n/a	47.76	Strong	47.76	Strong	0.83	0.9	h029.png	n/a	n/a	n/a
308.79	1.7	expectrating	10	low_cue	n/a	24.08	Moderate	24.08	Moderate	0.6	1.1	l001.png	n/a	n/a	n/a
336.48	2.26	expectrating	11	high_cue	n/a	49.72	Strong	49.72	Strong	1.15	1.11	h036.png	n/a	n/a	n/a
375.1	1.67	expectrating	12	low_cue	n/a	17.49	Moderate	17.49	Moderate	0.65	1.02	l051.png	n/a	n/a	n/a
18.2	6.99	stimulus	1	low_cue	med_stim	n/a	n/a	n/a	n/a	n/a	n/a	43_100_R.jpg	diff	diff	True
49.59	6.99	stimulus	2	low_cue	low_stim	n/a	n/a	n/a	n/a	n/a	n/a	48_50_R.jpg	diff	diff	True
87.29	7.0	stimulus	3	low_cue	high_stim	n/a	n/a	n/a	n/a	n/a	n/a	33_150.jpg	same	diff	False
115.18	7.0	stimulus	4	high_cue	low_stim	n/a	n/a	n/a	n/a	n/a	n/a	33_50_R.jpg	diff	diff	True
154.98	7.0	stimulus	5	high_cue	med_stim	n/a	n/a	n/a	n/a	n/a	n/a	22_100_R.jpg	diff	diff	True
188.48	7.0	stimulus	6	high_cue	high_stim	n/a	n/a	n/a	n/a	n/a	n/a	45_150.jpg	same	diff	False
219.29	7.0	stimulus	7	high_cue	low_stim	n/a	n/a	n/a	n/a	n/a	n/a	34_50_R.jpg	diff	diff	True
253.58	7.0	stimulus	8	low_cue	high_stim	n/a	n/a	n/a	n/a	n/a	n/a	17_150.jpg	same		False
281.68	7.0	stimulus	9	high_cue	high_stim	n/a	n/a	n/a	n/a	n/a	n/a	43_150.jpg	same	same	True
318.39	6.99	stimulus	10	low_cue	med_stim	n/a	n/a	n/a	n/a	n/a	n/a	44_100.jpg	same	same	True
348.79	7.0	stimulus	11	high_cue	med_stim	n/a	n/a	n/a	n/a	n/a	n/a	44_100_R.jpg	diff	diff	True
385.68	7.0	stimulus	12	low_cue	low_stim	n/a	n/a	n/a	n/a	n/a	n/a	43_50_R.jpg	diff	diff	True
28.08	2.53	outcomerating	1	low_cue	med_stim	50.05	Strong	50.05	Strong	0.82	1.71	task-cognitive_scale.png	n/a	n/a	n/a
58.48	1.82	outcomerating	2	low_cue	low_stim	8.44	Weak	8.44	Weak	0.82	1.0	task-cognitive_scale.png	n/a	n/a	n/a
96.39	1.82	outcomerating	3	low_cue	high_stim	14.65	Moderate	14.65	Moderate	0.65	1.17	task-cognitive_scale.png	n/a	n/a	n/a
127.39	2.09	outcomerating	4	high_cue	low_stim	10.86	Moderate	10.86	Moderate	0.9	1.19	task-cognitive_scale.png	n/a	n/a	n/a
167.19		outcomerating	5	high_cue	med_stim							task-cognitive_scale.png	n/a	n/a	n/a
200.68	3.17	outcomerating	6	high_cue	high_stim	73.02	Very Strong	73.02	Very Strong	1.3	1.87	task-cognitive_scale.png	n/a	n/a	n/a
235.79		outcomerating	7	high_cue	low_stim							task-cognitive_scale.png	n/a	n/a	n/a
261.59	2.31	outcomerating	8	low_cue	high_stim	14.37	Moderate	14.37	Moderate	0.68	1.62	task-cognitive_scale.png	n/a	n/a	n/a
300.49	1.62	outcomerating	9	high_cue	high_stim	54.22	Strong	54.22	Strong	0.45	1.17	task-cognitive_scale.png	n/a	n/a	n/a
327.28	2.25	outcomerating	10	low_cue	med_stim	19.16	Moderate	19.16	Moderate	0.65	1.6	task-cognitive_scale.png	n/a	n/a	n/a
361.19	2.23	outcomerating	11	high_cue	med_stim	26.87	Moderate	26.87	Moderate	1.25	0.98	task-cognitive_scale.png	n/a	n/a	n/a
394.69	1.74	outcomerating	12	low_cue	low_stim	20.18	Moderate	20.18	Moderate	0.68	1.06	task-cognitive_scale.png	n/a	n/a	n/a
