onset	duration	trial_type	trial_index	cue	stimulusintensity	rating_value	rating_glmslabel	rating_value_fillna	rating_glmslabel_fillna	rating_mouseonset	rating_mousedur	stim_file	onset_ttl1	onset_ttl2	onset_ttl3	onset_ttl4	stimulus_delivery_success
5.0	1.0	cue	1	low_cue	n/a	n/a	n/a	n/a	n/a	n/a	n/a	l044.png	n/a	n/a	n/a	n/a	n/a
37.4	1.0	cue	2	high_cue	n/a	n/a	n/a	n/a	n/a	n/a	n/a	h047.png	n/a	n/a	n/a	n/a	n/a
70.69	1.0	cue	3	low_cue	n/a	n/a	n/a	n/a	n/a	n/a	n/a	l055.png	n/a	n/a	n/a	n/a	n/a
100.21	0.98	cue	4	high_cue	n/a	n/a	n/a	n/a	n/a	n/a	n/a	h033.png	n/a	n/a	n/a	n/a	n/a
132.6	1.0	cue	5	low_cue	n/a	n/a	n/a	n/a	n/a	n/a	n/a	l043.png	n/a	n/a	n/a	n/a	n/a
165.3	1.0	cue	6	high_cue	n/a	n/a	n/a	n/a	n/a	n/a	n/a	h053.png	n/a	n/a	n/a	n/a	n/a
199.39	1.0	cue	7	low_cue	n/a	n/a	n/a	n/a	n/a	n/a	n/a	l015.png	n/a	n/a	n/a	n/a	n/a
236.41	0.98	cue	8	low_cue	n/a	n/a	n/a	n/a	n/a	n/a	n/a	l053.png	n/a	n/a	n/a	n/a	n/a
266.5	1.0	cue	9	high_cue	n/a	n/a	n/a	n/a	n/a	n/a	n/a	h015.png	n/a	n/a	n/a	n/a	n/a
304.5	1.0	cue	10	high_cue	n/a	n/a	n/a	n/a	n/a	n/a	n/a	h027.png	n/a	n/a	n/a	n/a	n/a
335.89	1.0	cue	11	high_cue	n/a	n/a	n/a	n/a	n/a	n/a	n/a	h010.png	n/a	n/a	n/a	n/a	n/a
371.21	0.98	cue	12	low_cue	n/a	n/a	n/a	n/a	n/a	n/a	n/a	l021.png	n/a	n/a	n/a	n/a	n/a
7.62	1.6	expectrating	1	low_cue	n/a	49.25	Strong	49.25	Strong	0.05	1.55	l044.png	n/a	n/a	n/a	n/a	n/a
39.7	2.26	expectrating	2	high_cue	n/a	77.74	Very Strong	77.74	Very Strong	0.65	1.61	h047.png	n/a	n/a	n/a	n/a	n/a
73.0	2.48	expectrating	3	low_cue	n/a	61.68	Strong	61.68	Strong	0.58	1.9	l055.png	n/a	n/a	n/a	n/a	n/a
102.81	1.45	expectrating	4	high_cue	n/a	105.11	Strongest sensation of any kind	105.11	Strongest sensation of any kind	0.05	1.4	h033.png	n/a	n/a	n/a	n/a	n/a
135.2	1.67	expectrating	5	low_cue	n/a	68.07	Very Strong	68.07	Very Strong	0.05	1.62	l043.png	n/a	n/a	n/a	n/a	n/a
167.61	1.15	expectrating	6	high_cue	n/a	100.41	Strongest sensation of any kind	100.41	Strongest sensation of any kind	0.1	1.05	h053.png	n/a	n/a	n/a	n/a	n/a
201.79	1.08	expectrating	7	low_cue	n/a	86.08	Very Strong	86.08	Very Strong	0.05	1.03	l015.png	n/a	n/a	n/a	n/a	n/a
239.11	1.43	expectrating	8	low_cue	n/a	74.12	Very Strong	74.12	Very Strong	0.07	1.37	l053.png	n/a	n/a	n/a	n/a	n/a
269.7	1.1	expectrating	9	high_cue	n/a	103.53	Strongest sensation of any kind	103.53	Strongest sensation of any kind	0.32	0.79	h015.png	n/a	n/a	n/a	n/a	n/a
307.4	1.39	expectrating	10	high_cue	n/a	116.36	Strongest sensation of any kind	116.36	Strongest sensation of any kind	0.05	1.34	h027.png	n/a	n/a	n/a	n/a	n/a
338.29	2.17	expectrating	11	high_cue	n/a	94.13	Very Strong	94.13	Very Strong	0.67	1.5	h010.png	n/a	n/a	n/a	n/a	n/a
373.11	1.33	expectrating	12	low_cue	n/a	90.23	Very Strong	90.23	Very Strong	0.05	1.28	l021.png	n/a	n/a	n/a	n/a	n/a
16.85	12.33	stimulus	1	low_cue	high_stim	n/a	n/a	n/a	n/a	n/a	n/a	50c	16.44	20.27	25.27	28.78	success
50.02	11.94	stimulus	2	high_cue	med_stim	n/a	n/a	n/a	n/a	n/a	n/a	49c	49.63	53.22	58.22	61.57	success
77.93	11.51	stimulus	3	low_cue	low_stim	n/a	n/a	n/a	n/a	n/a	n/a	48c	77.53	80.85	85.85	89.04	success
108.22	11.5	stimulus	4	high_cue	low_stim	n/a	n/a	n/a	n/a	n/a	n/a	48c	107.83	111.18	116.18	119.33	success
145.52	11.96	stimulus	5	low_cue	med_stim	n/a	n/a	n/a	n/a	n/a	n/a	49c	145.13	148.73	153.73	157.09	success
177.83	12.38	stimulus	6	high_cue	high_stim	n/a	n/a	n/a	n/a	n/a	n/a	50c	177.43	181.28	186.28	189.81	success
212.13	11.47	stimulus	7	low_cue	low_stim	n/a	n/a	n/a	n/a	n/a	n/a	48c	211.73	215.06	220.06	223.2	success
245.44	12.44	stimulus	8	low_cue	high_stim	n/a	n/a	n/a	n/a	n/a	n/a	50c	245.04	248.9	253.9	257.48	success
278.22	12.4	stimulus	9	high_cue	high_stim	n/a	n/a	n/a	n/a	n/a	n/a	50c	277.83	281.68	286.68	290.23	success
317.63	11.93	stimulus	10	high_cue	med_stim	n/a	n/a	n/a	n/a	n/a	n/a	49c	317.24	320.81	325.81	329.17	success
344.64	11.57	stimulus	11	high_cue	low_stim	n/a	n/a	n/a	n/a	n/a	n/a	48c	344.24	347.6	352.6	355.81	success
383.22	11.95	stimulus	12	low_cue	med_stim	n/a	n/a	n/a	n/a	n/a	n/a	49c	382.82	386.41	391.41	394.77	success
28.81	2.1	outcomerating	1	low_cue	high_stim	88.38	Very Strong	88.38	Very Strong	0.52	1.58	task-pain_scale.png	n/a	n/a	n/a	n/a	success
65.51	1.63	outcomerating	2	high_cue	med_stim	63.64	Strong	63.64	Strong	0.55	1.08	task-pain_scale.png	n/a	n/a	n/a	n/a	success
88.3	1.67	outcomerating	3	low_cue	low_stim	51.02	Strong	51.02	Strong	0.38	1.29	task-pain_scale.png	n/a	n/a	n/a	n/a	success
123.7	1.82	outcomerating	4	high_cue	low_stim	83.74	Very Strong	83.74	Very Strong	0.47	1.36	task-pain_scale.png	n/a	n/a	n/a	n/a	success
156.41	2.52	outcomerating	5	low_cue	med_stim	90.71	Very Strong	90.71	Very Strong	0.75	1.77	task-pain_scale.png	n/a	n/a	n/a	n/a	success
190.61	1.82	outcomerating	6	high_cue	high_stim	102.68	Strongest sensation of any kind	102.68	Strongest sensation of any kind	0.72	1.1	task-pain_scale.png	n/a	n/a	n/a	n/a	success
231.0	2.32	outcomerating	7	low_cue	low_stim	60.49	Strong	60.49	Strong	0.47	1.85	task-pain_scale.png	n/a	n/a	n/a	n/a	success
261.2	1.71	outcomerating	8	low_cue	high_stim	104.87	Strongest sensation of any kind	104.87	Strongest sensation of any kind	0.75	0.96	task-pain_scale.png	n/a	n/a	n/a	n/a	success
290.71	2.44	outcomerating	9	high_cue	high_stim	111.2	Strongest sensation of any kind	111.2	Strongest sensation of any kind	0.48	1.95	task-pain_scale.png	n/a	n/a	n/a	n/a	success
329.71	1.78	outcomerating	10	high_cue	med_stim	66.34	Very Strong	66.34	Very Strong	0.68	1.1	task-pain_scale.png	n/a	n/a	n/a	n/a	success
358.3	1.49	outcomerating	11	high_cue	low_stim	54.78	Strong	54.78	Strong	0.32	1.17	task-pain_scale.png	n/a	n/a	n/a	n/a	success
394.9	2.72	outcomerating	12	low_cue	med_stim	64.05	Very Strong	64.05	Very Strong	0.43	2.29	task-pain_scale.png	n/a	n/a	n/a	n/a	success
