onset	duration	trial_type	trial_index	cue	stimulusintensity	rating_value	rating_glmslabel	rating_value_fillna	rating_glmslabel_fillna	rating_mouseonset	rating_mousedur	stim_file	onset_ttl1	onset_ttl2	onset_ttl3	onset_ttl4	stimulus_delivery_success
9.11	0.98	cue	1	high_cue	n/a	n/a	n/a	n/a	n/a	n/a	n/a	h002.png	n/a	n/a	n/a	n/a	n/a
45.51	0.98	cue	2	low_cue	n/a	n/a	n/a	n/a	n/a	n/a	n/a	l040.png	n/a	n/a	n/a	n/a	n/a
87.21	1.0	cue	3	high_cue	n/a	n/a	n/a	n/a	n/a	n/a	n/a	h033.png	n/a	n/a	n/a	n/a	n/a
129.11	1.0	cue	4	high_cue	n/a	n/a	n/a	n/a	n/a	n/a	n/a	h020.png	n/a	n/a	n/a	n/a	n/a
155.4	1.0	cue	5	low_cue	n/a	n/a	n/a	n/a	n/a	n/a	n/a	l032.png	n/a	n/a	n/a	n/a	n/a
189.59	1.0	cue	6	low_cue	n/a	n/a	n/a	n/a	n/a	n/a	n/a	l031.png	n/a	n/a	n/a	n/a	n/a
214.1	1.0	cue	7	low_cue	n/a	n/a	n/a	n/a	n/a	n/a	n/a	l038.png	n/a	n/a	n/a	n/a	n/a
239.0	1.0	cue	8	low_cue	n/a	n/a	n/a	n/a	n/a	n/a	n/a	l044.png	n/a	n/a	n/a	n/a	n/a
268.01	0.98	cue	9	low_cue	n/a	n/a	n/a	n/a	n/a	n/a	n/a	l005.png	n/a	n/a	n/a	n/a	n/a
305.0	1.0	cue	10	high_cue	n/a	n/a	n/a	n/a	n/a	n/a	n/a	h001.png	n/a	n/a	n/a	n/a	n/a
339.2	1.0	cue	11	high_cue	n/a	n/a	n/a	n/a	n/a	n/a	n/a	h035.png	n/a	n/a	n/a	n/a	n/a
370.1	1.0	cue	12	high_cue	n/a	n/a	n/a	n/a	n/a	n/a	n/a	h056.png	n/a	n/a	n/a	n/a	n/a
10.73		expectrating	1	high_cue	n/a			91.62	Very Strong	0.77	3.97	h002.png	n/a	n/a	n/a	n/a	n/a
47.41	2.04	expectrating	2	low_cue	n/a	26.26	Moderate	26.26	Moderate	0.15	1.89	l040.png	n/a	n/a	n/a	n/a	n/a
89.51	2.45	expectrating	3	high_cue	n/a	48.77	Strong	48.77	Strong	0.03	2.42	h033.png	n/a	n/a	n/a	n/a	n/a
131.01	1.71	expectrating	4	high_cue	n/a	102.75	Strongest sensation of any kind	102.75	Strongest sensation of any kind	0.1	1.61	h020.png	n/a	n/a	n/a	n/a	n/a
158.6	2.6	expectrating	5	low_cue	n/a	31.2	Strong	31.2	Strong	0.13	2.47	l032.png	n/a	n/a	n/a	n/a	n/a
192.3	1.77	expectrating	6	low_cue	n/a	43.86	Strong	43.86	Strong	0.05	1.72	l031.png	n/a	n/a	n/a	n/a	n/a
216.4	1.91	expectrating	7	low_cue	n/a	41.75	Strong	41.75	Strong	0.05	1.86	l038.png	n/a	n/a	n/a	n/a	n/a
241.4	2.62	expectrating	8	low_cue	n/a	57.8	Strong	57.8	Strong	0.05	2.57	l044.png	n/a	n/a	n/a	n/a	n/a
271.21	2.45	expectrating	9	low_cue	n/a	12.48	Moderate	12.48	Moderate	0.45	2.0	l005.png	n/a	n/a	n/a	n/a	n/a
308.11	2.59	expectrating	10	high_cue	n/a	51.15	Strong	51.15	Strong	0.1	2.49	h001.png	n/a	n/a	n/a	n/a	n/a
341.9	1.74	expectrating	11	high_cue	n/a	94.55	Very Strong	94.55	Very Strong	0.4	1.34	h035.png	n/a	n/a	n/a	n/a	n/a
372.8	1.88	expectrating	12	high_cue	n/a	62.4	Strong	62.4	Strong	0.05	1.83	h056.png	n/a	n/a	n/a	n/a	n/a
20.66	12.31	stimulus	1	high_cue	high_stim	n/a	n/a	n/a	n/a	n/a	n/a	50c	20.68	24.5	29.5	32.99	success
58.75	11.46	stimulus	2	low_cue	low_stim	n/a	n/a	n/a	n/a	n/a	n/a	48c	58.78	62.12	67.12	70.24	success
102.56	11.47	stimulus	3	high_cue	low_stim	n/a	n/a	n/a	n/a	n/a	n/a	48c	102.59	105.94	110.94	114.06	success
136.13	11.9	stimulus	4	high_cue	med_stim	n/a	n/a	n/a	n/a	n/a	n/a	49c	136.17	139.74	144.74	148.07	success
168.52	11.46	stimulus	5	low_cue	low_stim	n/a	n/a	n/a	n/a	n/a	n/a	48c	168.57	171.91	176.91	180.02	success
197.75	12.31	stimulus	6	low_cue	high_stim	n/a	n/a	n/a	n/a	n/a	n/a	50c	197.78	201.58	206.58	210.1	success
222.13	11.85	stimulus	7	low_cue	med_stim	n/a	n/a	n/a	n/a	n/a	n/a	49c	222.16	225.69	230.69	234.02	success
246.52	11.92	stimulus	8	low_cue	med_stim	n/a	n/a	n/a	n/a	n/a	n/a	49c	246.56	250.12	255.12	258.48	success
279.77	12.34	stimulus	9	low_cue	high_stim	n/a	n/a	n/a	n/a	n/a	n/a	50c	279.81	283.59	288.59	292.15	success
315.14	11.45	stimulus	10	high_cue	low_stim	n/a	n/a	n/a	n/a	n/a	n/a	48c	315.18	318.48	323.48	326.63	success
350.43	11.89	stimulus	11	high_cue	med_stim	n/a	n/a	n/a	n/a	n/a	n/a	49c	350.46	354.02	359.02	362.35	success
385.52	12.31	stimulus	12	high_cue	high_stim	n/a	n/a	n/a	n/a	n/a	n/a	50c	385.57	389.34	394.34	397.87	success
32.6	2.58	outcomerating	1	high_cue	high_stim	84.95	Very Strong	84.95	Very Strong	0.45	2.13	task-pain_scale.png	n/a	n/a	n/a	n/a	success
75.5		outcomerating	2	low_cue	low_stim			21.63	Moderate	0.88	2.78	task-pain_scale.png	n/a	n/a	n/a	n/a	success
118.4	3.05	outcomerating	3	high_cue	low_stim	38.91	Strong	38.91	Strong	0.38	2.67	task-pain_scale.png	n/a	n/a	n/a	n/a	success
148.6	2.7	outcomerating	4	high_cue	med_stim	62.71	Strong	62.71	Strong	0.75	1.95	task-pain_scale.png	n/a	n/a	n/a	n/a	success
184.31	3.55	outcomerating	5	low_cue	low_stim	21.93	Moderate	21.93	Moderate	0.13	3.42	task-pain_scale.png	n/a	n/a	n/a	n/a	success
208.2	3.7	outcomerating	6	low_cue	high_stim	77.7	Very Strong	77.7	Very Strong	0.7	3.0	task-pain_scale.png	n/a	n/a	n/a	n/a	success
232.71	2.1	outcomerating	7	low_cue	med_stim	45.98	Strong	45.98	Strong	0.7	1.4	task-pain_scale.png	n/a	n/a	n/a	n/a	success
261.7	3.29	outcomerating	8	low_cue	med_stim	40.6	Strong	40.6	Strong	0.4	2.89	task-pain_scale.png	n/a	n/a	n/a	n/a	success
294.9	2.15	outcomerating	9	low_cue	high_stim	56.71	Strong	56.71	Strong	0.47	1.68	task-pain_scale.png	n/a	n/a	n/a	n/a	success
328.6	3.6	outcomerating	10	high_cue	low_stim	19.61	Moderate	19.61	Moderate	0.68	2.92	task-pain_scale.png	n/a	n/a	n/a	n/a	success
364.91	2.07	outcomerating	11	high_cue	med_stim	55.16	Strong	55.16	Strong	0.42	1.65	task-pain_scale.png	n/a	n/a	n/a	n/a	success
395.0	2.87	outcomerating	12	high_cue	high_stim	59.91	Strong	59.91	Strong	1.15	1.72	task-pain_scale.png	n/a	n/a	n/a	n/a	success
