onset	duration	trial_type	trial_index	cue	stimulusintensity	rating_value	rating_glmslabel	rating_value_fillna	rating_glmslabel_fillna	rating_mouseonset	rating_mousedur	stim_file	correct_response	participant_response	response_accuracy
11.59	0.99	cue	1	low_cue	n/a	n/a	n/a	n/a	n/a	n/a	n/a	l042.png	n/a	n/a	n/a
42.38	1.0	cue	2	high_cue	n/a	n/a	n/a	n/a	n/a	n/a	n/a	h029.png	n/a	n/a	n/a
74.2	0.98	cue	3	high_cue	n/a	n/a	n/a	n/a	n/a	n/a	n/a	h025.png	n/a	n/a	n/a
110.59	0.99	cue	4	high_cue	n/a	n/a	n/a	n/a	n/a	n/a	n/a	h024.png	n/a	n/a	n/a
139.9	0.98	cue	5	low_cue	n/a	n/a	n/a	n/a	n/a	n/a	n/a	l040.png	n/a	n/a	n/a
181.29	0.99	cue	6	low_cue	n/a	n/a	n/a	n/a	n/a	n/a	n/a	l050.png	n/a	n/a	n/a
216.1	0.98	cue	7	low_cue	n/a	n/a	n/a	n/a	n/a	n/a	n/a	l032.png	n/a	n/a	n/a
250.39	0.98	cue	8	low_cue	n/a	n/a	n/a	n/a	n/a	n/a	n/a	l026.png	n/a	n/a	n/a
287.69	0.99	cue	9	high_cue	n/a	n/a	n/a	n/a	n/a	n/a	n/a	h053.png	n/a	n/a	n/a
317.99	0.99	cue	10	high_cue	n/a	n/a	n/a	n/a	n/a	n/a	n/a	h048.png	n/a	n/a	n/a
343.9	0.98	cue	11	high_cue	n/a	n/a	n/a	n/a	n/a	n/a	n/a	h056.png	n/a	n/a	n/a
374.79	0.99	cue	12	low_cue	n/a	n/a	n/a	n/a	n/a	n/a	n/a	l021.png	n/a	n/a	n/a
14.81	2.84	expectrating	1	low_cue	n/a	41.9	Strong	41.9	Strong	0.47	2.37	l042.png	n/a	n/a	n/a
44.2	2.25	expectrating	2	high_cue	n/a	84.02	Very Strong	84.02	Very Strong	0.98	1.27	h029.png	n/a	n/a	n/a
77.4	2.68	expectrating	3	high_cue	n/a	52.89	Strong	52.89	Strong	1.73	0.95	h025.png	n/a	n/a	n/a
113.29	2.17	expectrating	4	high_cue	n/a	92.78	Very Strong	92.78	Very Strong	0.92	1.25	h024.png	n/a	n/a	n/a
143.1	2.19	expectrating	5	low_cue	n/a	8.55	Weak	8.55	Weak	0.05	2.14	l040.png	n/a	n/a	n/a
183.69	2.07	expectrating	6	low_cue	n/a	24.41	Moderate	24.41	Moderate	0.05	2.02	l050.png	n/a	n/a	n/a
218.7	2.5	expectrating	7	low_cue	n/a	30.08	Strong	30.08	Strong	0.53	1.97	l032.png	n/a	n/a	n/a
253.1	2.13	expectrating	8	low_cue	n/a	14.43	Moderate	14.43	Moderate	0.07	2.07	l026.png	n/a	n/a	n/a
289.49	3.72	expectrating	9	high_cue	n/a	71.42	Very Strong	71.42	Very Strong	1.48	2.24	h053.png	n/a	n/a	n/a
320.59	2.44	expectrating	10	high_cue	n/a	52.67	Strong	52.67	Strong	0.95	1.49	h048.png	n/a	n/a	n/a
345.7	2.0	expectrating	11	high_cue	n/a	46.8	Strong	46.8	Strong	0.78	1.22	h056.png	n/a	n/a	n/a
376.69	1.24	expectrating	12	low_cue	n/a	13.13	Moderate	13.13	Moderate	0.08	1.15	l021.png	n/a	n/a	n/a
21.51	6.99	stimulus	1	low_cue	low_stim	n/a	n/a	n/a	n/a	n/a	n/a	24_50.jpg	same	same	True
57.49	7.0	stimulus	2	high_cue	med_stim	n/a	n/a	n/a	n/a	n/a	n/a	19_100_R.jpg	diff	diff	True
85.1	6.99	stimulus	3	high_cue	low_stim	n/a	n/a	n/a	n/a	n/a	n/a	35_50_R.jpg	diff	diff	True
120.0	7.0	stimulus	4	high_cue	high_stim	n/a	n/a	n/a	n/a	n/a	n/a	19_150_R.jpg	diff		False
156.79	7.0	stimulus	5	low_cue	med_stim	n/a	n/a	n/a	n/a	n/a	n/a	44_100.jpg	same	same	True
196.79	7.0	stimulus	6	low_cue	high_stim	n/a	n/a	n/a	n/a	n/a	n/a	20_150_R.jpg	diff	same	False
235.79	7.0	stimulus	7	low_cue	med_stim	n/a	n/a	n/a	n/a	n/a	n/a	14_100_R.jpg	diff	diff	True
265.8	6.99	stimulus	8	low_cue	high_stim	n/a	n/a	n/a	n/a	n/a	n/a	24_150.jpg	same	same	True
297.1	7.0	stimulus	9	high_cue	low_stim	n/a	n/a	n/a	n/a	n/a	n/a	26_50.jpg	same	diff	False
328.19	7.0	stimulus	10	high_cue	high_stim	n/a	n/a	n/a	n/a	n/a	n/a	44_150_R.jpg	diff	same	False
357.8	6.99	stimulus	11	high_cue	med_stim	n/a	n/a	n/a	n/a	n/a	n/a	35_100_R.jpg	diff	diff	True
384.29	7.0	stimulus	12	low_cue	low_stim	n/a	n/a	n/a	n/a	n/a	n/a	20_50_R.jpg	diff	same	False
36.9	3.35	outcomerating	1	low_cue	low_stim	73.39	Very Strong	73.39	Very Strong	0.62	2.73	task-cognitive_scale.png	n/a	n/a	n/a
67.49	2.82	outcomerating	2	high_cue	med_stim	13.25	Moderate	13.25	Moderate	0.62	2.2	task-cognitive_scale.png	n/a	n/a	n/a
96.59	2.24	outcomerating	3	high_cue	low_stim	38.98	Strong	38.98	Strong	0.87	1.37	task-cognitive_scale.png	n/a	n/a	n/a
133.2	1.97	outcomerating	4	high_cue	high_stim	88.58	Very Strong	88.58	Very Strong	0.6	1.37	task-cognitive_scale.png	n/a	n/a	n/a
165.7	1.92	outcomerating	5	low_cue	med_stim	43.05	Strong	43.05	Strong	0.63	1.28	task-cognitive_scale.png	n/a	n/a	n/a
210.4	2.35	outcomerating	6	low_cue	high_stim	65.42	Very Strong	65.42	Very Strong	0.78	1.57	task-cognitive_scale.png	n/a	n/a	n/a
244.49	2.17	outcomerating	7	low_cue	med_stim	67.72	Very Strong	67.72	Very Strong	0.58	1.59	task-cognitive_scale.png	n/a	n/a	n/a
282.69	2.62	outcomerating	8	low_cue	high_stim	45.16	Strong	45.16	Strong	0.48	2.14	task-cognitive_scale.png	n/a	n/a	n/a
308.2	2.22	outcomerating	9	high_cue	low_stim	59.12	Strong	59.12	Strong	0.72	1.5	task-cognitive_scale.png	n/a	n/a	n/a
337.49	1.8	outcomerating	10	high_cue	high_stim	49.55	Strong	49.55	Strong	0.83	0.97	task-cognitive_scale.png	n/a	n/a	n/a
366.7	2.47	outcomerating	11	high_cue	med_stim	12.53	Moderate	12.53	Moderate	0.77	1.71	task-cognitive_scale.png	n/a	n/a	n/a
394.8	2.52	outcomerating	12	low_cue	low_stim	50.87	Strong	50.87	Strong	0.4	2.12	task-cognitive_scale.png	n/a	n/a	n/a
