onset	duration	trial_type	trial_index	cue	stimulusintensity	rating_value	rating_glmslabel	rating_value_fillna	rating_glmslabel_fillna	rating_mouseonset	rating_mousedur	stim_file
11.59	0.99	cue	1	low_cue	n/a	n/a	n/a	n/a	n/a	n/a	n/a	l019.png
42.39	1.0	cue	2	high_cue	n/a	n/a	n/a	n/a	n/a	n/a	n/a	h053.png
74.2	0.98	cue	3	high_cue	n/a	n/a	n/a	n/a	n/a	n/a	n/a	h004.png
110.59	0.99	cue	4	high_cue	n/a	n/a	n/a	n/a	n/a	n/a	n/a	h001.png
139.89	0.99	cue	5	low_cue	n/a	n/a	n/a	n/a	n/a	n/a	n/a	l036.png
181.29	0.99	cue	6	low_cue	n/a	n/a	n/a	n/a	n/a	n/a	n/a	l046.png
216.1	0.98	cue	7	low_cue	n/a	n/a	n/a	n/a	n/a	n/a	n/a	l011.png
250.4	0.98	cue	8	low_cue	n/a	n/a	n/a	n/a	n/a	n/a	n/a	l016.png
287.69	0.99	cue	9	high_cue	n/a	n/a	n/a	n/a	n/a	n/a	n/a	h041.png
317.99	0.99	cue	10	high_cue	n/a	n/a	n/a	n/a	n/a	n/a	n/a	h014.png
343.9	0.98	cue	11	high_cue	n/a	n/a	n/a	n/a	n/a	n/a	n/a	h051.png
374.79	0.99	cue	12	low_cue	n/a	n/a	n/a	n/a	n/a	n/a	n/a	l025.png
14.81	3.32	expectrating	1	low_cue	n/a	19.96	Moderate	19.96	Moderate	0.68	2.63	l019.png
44.2		expectrating	2	high_cue	n/a			23.47	Moderate	1.02	3.78	h053.png
77.4	3.25	expectrating	3	high_cue	n/a	71.42	Very Strong	71.42	Very Strong	0.97	2.28	h004.png
113.3	3.92	expectrating	4	high_cue	n/a	31.0	Strong	31.0	Strong	0.75	3.17	h001.png
143.09	3.57	expectrating	5	low_cue	n/a	30.06	Strong	30.06	Strong	0.82	2.75	l036.png
183.7	2.52	expectrating	6	low_cue	n/a	19.45	Moderate	19.45	Moderate	1.32	1.21	l046.png
218.7	3.52	expectrating	7	low_cue	n/a	14.37	Moderate	14.37	Moderate	0.8	2.72	l011.png
253.1	2.4	expectrating	8	low_cue	n/a	14.87	Moderate	14.87	Moderate	0.53	1.87	l016.png
289.49	3.32	expectrating	9	high_cue	n/a	40.32	Strong	40.32	Strong	0.75	2.57	h041.png
320.59	2.54	expectrating	10	high_cue	n/a	61.04	Strong	61.04	Strong	1.15	1.39	h014.png
345.7	2.97	expectrating	11	high_cue	n/a	56.96	Strong	56.96	Strong	1.05	1.92	h051.png
376.69	2.72	expectrating	12	low_cue	n/a	27.18	Moderate	27.18	Moderate	0.05	2.67	l025.png
21.49	7.01	stimulus	1	low_cue	low_stim	n/a	n/a	n/a	n/a	n/a	n/a	nm106t1aaunaff_L.mp4
57.48	7.01	stimulus	2	high_cue	med_stim	n/a	n/a	n/a	n/a	n/a	n/a	bn080t1aeaff_M.mp4
85.08	7.0	stimulus	3	high_cue	low_stim	n/a	n/a	n/a	n/a	n/a	n/a	mg101t2afunaff_L.mp4
119.98	7.0	stimulus	4	high_cue	high_stim	n/a	n/a	n/a	n/a	n/a	n/a	nm106t1afaff_H.mp4
156.78	7.01	stimulus	5	low_cue	med_stim	n/a	n/a	n/a	n/a	n/a	n/a	bg096t2aaaff_M.mp4
196.78	7.01	stimulus	6	low_cue	high_stim	n/a	n/a	n/a	n/a	n/a	n/a	bn080t1afaff_H.mp4
235.78	7.01	stimulus	7	low_cue	med_stim	n/a	n/a	n/a	n/a	n/a	n/a	bm049t2aeaff_M.mp4
265.78	7.0	stimulus	8	low_cue	high_stim	n/a	n/a	n/a	n/a	n/a	n/a	ib109t1aiaff_H.mp4
297.08	7.02	stimulus	9	high_cue	low_stim	n/a	n/a	n/a	n/a	n/a	n/a	tv095t2aeunaff_L.mp4
328.18	7.01	stimulus	10	high_cue	high_stim	n/a	n/a	n/a	n/a	n/a	n/a	dr052t1aiaff_H.mp4
357.78	7.01	stimulus	11	high_cue	med_stim	n/a	n/a	n/a	n/a	n/a	n/a	nm106t2aaunaff_M.mp4
384.28	7.02	stimulus	12	low_cue	low_stim	n/a	n/a	n/a	n/a	n/a	n/a	dr052t1aeunaff_L.mp4
36.9	2.39	outcomerating	1	low_cue	low_stim	12.98	Moderate	12.98	Moderate	0.05	2.34	task-vicarious_scale.png
67.49	2.57	outcomerating	2	high_cue	med_stim	60.65	Strong	60.65	Strong	0.05	2.52	task-vicarious_scale.png
96.61	2.37	outcomerating	3	high_cue	low_stim	14.15	Moderate	14.15	Moderate	0.05	2.32	task-vicarious_scale.png
133.2	2.34	outcomerating	4	high_cue	high_stim	81.18	Very Strong	81.18	Very Strong	0.33	2.01	task-vicarious_scale.png
165.7	3.59	outcomerating	5	low_cue	med_stim	86.77	Very Strong	86.77	Very Strong	0.28	3.3	task-vicarious_scale.png
210.4	2.42	outcomerating	6	low_cue	high_stim	43.7	Strong	43.7	Strong	0.98	1.43	task-vicarious_scale.png
244.49	3.13	outcomerating	7	low_cue	med_stim	26.05	Moderate	26.05	Moderate	0.48	2.65	task-vicarious_scale.png
282.71		outcomerating	8	low_cue	high_stim			28.0	Moderate	0.53	3.13	task-vicarious_scale.png
308.2	3.59	outcomerating	9	high_cue	low_stim	54.65	Strong	54.65	Strong	0.77	2.83	task-vicarious_scale.png
337.5		outcomerating	10	high_cue	high_stim			76.58	Very Strong	1.78	2.0	task-vicarious_scale.png
366.71		outcomerating	11	high_cue	med_stim			21.84	Moderate	0.82	2.83	task-vicarious_scale.png
394.8	2.89	outcomerating	12	low_cue	low_stim	17.49	Moderate	17.49	Moderate	0.48	2.41	task-vicarious_scale.png
