onset	duration	trial_type	trial_index	cue	stimulusintensity	rating_value	rating_glmslabel	rating_value_fillna	rating_glmslabel_fillna	rating_mouseonset	rating_mousedur	stim_file	onset_ttl1	onset_ttl2	onset_ttl3	onset_ttl4	stimulus_delivery_success
4.7	1.0	cue	1	high_cue	n/a	n/a	n/a	n/a	n/a	n/a	n/a	h027.png	n/a	n/a	n/a	n/a	n/a
37.2	1.0	cue	2	low_cue	n/a	n/a	n/a	n/a	n/a	n/a	n/a	l029.png	n/a	n/a	n/a	n/a	n/a
62.21	1.0	cue	3	low_cue	n/a	n/a	n/a	n/a	n/a	n/a	n/a	l055.png	n/a	n/a	n/a	n/a	n/a
91.8	1.0	cue	4	low_cue	n/a	n/a	n/a	n/a	n/a	n/a	n/a	l048.png	n/a	n/a	n/a	n/a	n/a
120.11	0.98	cue	5	high_cue	n/a	n/a	n/a	n/a	n/a	n/a	n/a	h011.png	n/a	n/a	n/a	n/a	n/a
149.31	1.0	cue	6	high_cue	n/a	n/a	n/a	n/a	n/a	n/a	n/a	h041.png	n/a	n/a	n/a	n/a	n/a
178.6	1.0	cue	7	high_cue	n/a	n/a	n/a	n/a	n/a	n/a	n/a	h022.png	n/a	n/a	n/a	n/a	n/a
219.0	1.0	cue	8	high_cue	n/a	n/a	n/a	n/a	n/a	n/a	n/a	h001.png	n/a	n/a	n/a	n/a	n/a
245.51	1.0	cue	9	low_cue	n/a	n/a	n/a	n/a	n/a	n/a	n/a	l039.png	n/a	n/a	n/a	n/a	n/a
276.4	1.0	cue	10	low_cue	n/a	n/a	n/a	n/a	n/a	n/a	n/a	l053.png	n/a	n/a	n/a	n/a	n/a
323.0	1.0	cue	11	low_cue	n/a	n/a	n/a	n/a	n/a	n/a	n/a	l028.png	n/a	n/a	n/a	n/a	n/a
362.3	1.0	cue	12	high_cue	n/a	n/a	n/a	n/a	n/a	n/a	n/a	h031.png	n/a	n/a	n/a	n/a	n/a
7.12	2.55	expectrating	1	high_cue	n/a	60.34	Strong	60.34	Strong	0.55	2.0	h027.png	n/a	n/a	n/a	n/a	n/a
39.0	1.65	expectrating	2	low_cue	n/a	0.0		0.0		0.48	1.17	l029.png	n/a	n/a	n/a	n/a	n/a
64.31	2.9	expectrating	3	low_cue	n/a	5.53	Weak	5.53	Weak	1.02	1.89	l055.png	n/a	n/a	n/a	n/a	n/a
94.9	2.17	expectrating	4	low_cue	n/a	0.0		0.0		0.47	1.7	l048.png	n/a	n/a	n/a	n/a	n/a
122.51	1.52	expectrating	5	high_cue	n/a	52.61	Strong	52.61	Strong	0.42	1.1	h011.png	n/a	n/a	n/a	n/a	n/a
151.41	1.69	expectrating	6	high_cue	n/a	58.17	Strong	58.17	Strong	0.45	1.24	h041.png	n/a	n/a	n/a	n/a	n/a
180.7	1.67	expectrating	7	high_cue	n/a	75.17	Very Strong	75.17	Very Strong	0.4	1.27	h022.png	n/a	n/a	n/a	n/a	n/a
221.1	2.23	expectrating	8	high_cue	n/a	65.73	Very Strong	65.73	Very Strong	0.47	1.77	h001.png	n/a	n/a	n/a	n/a	n/a
248.61	2.64	expectrating	9	low_cue	n/a	21.35	Moderate	21.35	Moderate	0.43	2.2	l039.png	n/a	n/a	n/a	n/a	n/a
279.5	1.87	expectrating	10	low_cue	n/a	13.76	Moderate	13.76	Moderate	0.47	1.41	l053.png	n/a	n/a	n/a	n/a	n/a
325.4	2.91	expectrating	11	low_cue	n/a	5.3	Weak	5.3	Weak	0.58	2.32	l028.png	n/a	n/a	n/a	n/a	n/a
365.4	2.81	expectrating	12	high_cue	n/a	64.29	Very Strong	64.29	Very Strong	0.43	2.38	h031.png	n/a	n/a	n/a	n/a	n/a
19.98	13.16	stimulus	1	high_cue	low_stim	n/a	n/a	n/a	n/a	n/a	n/a	48c	19.56	23.56	28.56	32.72	success
44.13	13.12	stimulus	2	low_cue	low_stim	n/a	n/a	n/a	n/a	n/a	n/a	48c	43.71	47.6	52.6	56.84	success
75.16	13.8	stimulus	3	low_cue	med_stim	n/a	n/a	n/a	n/a	n/a	n/a	49c	74.74	79.05	84.04	88.54	success
104.15	14.47	stimulus	4	low_cue	high_stim	n/a	n/a	n/a	n/a	n/a	n/a	50c	103.75	108.33	113.33	118.22	success
132.12	13.96	stimulus	5	high_cue	med_stim	n/a	n/a	n/a	n/a	n/a	n/a	49c	131.72	136.03	141.03	145.68	success
160.93	14.54	stimulus	6	high_cue	high_stim	n/a	n/a	n/a	n/a	n/a	n/a	50c	160.52	165.14	170.14	175.06	success
187.33	13.33	stimulus	7	high_cue	low_stim	n/a	n/a	n/a	n/a	n/a	n/a	48c	186.92	190.83	195.83	200.25	success
226.03	14.75	stimulus	8	high_cue	high_stim	n/a	n/a	n/a	n/a	n/a	n/a	50c	225.62	230.4	235.4	240.36	success
257.21	13.44	stimulus	9	low_cue	low_stim	n/a	n/a	n/a	n/a	n/a	n/a	48c	256.81	260.85	265.85	270.25	success
288.85	14.03	stimulus	10	low_cue	med_stim	n/a	n/a	n/a	n/a	n/a	n/a	49c	288.43	292.77	297.77	302.46	success
330.82	14.7	stimulus	11	low_cue	high_stim	n/a	n/a	n/a	n/a	n/a	n/a	50c	330.42	335.19	340.19	345.12	success
375.53	14.09	stimulus	12	high_cue	med_stim	n/a	n/a	n/a	n/a	n/a	n/a	49c	375.12	379.56	384.56	389.21	success
31.31	2.53	outcomerating	1	high_cue	low_stim	78.15	Very Strong	78.15	Very Strong	0.63	1.9	task-pain_scale.png	n/a	n/a	n/a	n/a	success
57.3	2.54	outcomerating	2	low_cue	low_stim	63.33	Strong	63.33	Strong	0.57	1.97	task-pain_scale.png	n/a	n/a	n/a	n/a	success
86.7	3.25	outcomerating	3	low_cue	med_stim	85.85	Very Strong	85.85	Very Strong	0.62	2.63	task-pain_scale.png	n/a	n/a	n/a	n/a	success
115.41	2.15	outcomerating	4	low_cue	high_stim	84.91	Very Strong	84.91	Very Strong	0.6	1.55	task-pain_scale.png	n/a	n/a	n/a	n/a	success
144.7	2.51	outcomerating	5	high_cue	med_stim	74.56	Very Strong	74.56	Very Strong	0.45	2.06	task-pain_scale.png	n/a	n/a	n/a	n/a	success
172.6	2.23	outcomerating	6	high_cue	high_stim	83.84	Very Strong	83.84	Very Strong	0.73	1.5	task-pain_scale.png	n/a	n/a	n/a	n/a	success
207.21	2.45	outcomerating	7	high_cue	low_stim	49.47	Strong	49.47	Strong	0.45	2.0	task-pain_scale.png	n/a	n/a	n/a	n/a	success
240.61	1.74	outcomerating	8	high_cue	high_stim	89.3	Very Strong	89.3	Very Strong	0.55	1.19	task-pain_scale.png	n/a	n/a	n/a	n/a	success
270.5	1.9	outcomerating	9	low_cue	low_stim	44.84	Strong	44.84	Strong	0.62	1.28	task-pain_scale.png	n/a	n/a	n/a	n/a	success
302.01	2.18	outcomerating	10	low_cue	med_stim	52.49	Strong	52.49	Strong	0.48	1.7	task-pain_scale.png	n/a	n/a	n/a	n/a	success
341.21	3.3	outcomerating	11	low_cue	high_stim	61.04	Strong	61.04	Strong	0.85	2.45	task-pain_scale.png	n/a	n/a	n/a	n/a	success
394.11	2.67	outcomerating	12	high_cue	med_stim	75.8	Very Strong	75.8	Very Strong	0.38	2.28	task-pain_scale.png	n/a	n/a	n/a	n/a	success
