onset	duration	trial_type	trial_index	cue	stimulusintensity	rating_value	rating_glmslabel	rating_value_fillna	rating_glmslabel_fillna	rating_mouseonset	rating_mousedur	stim_file	onset_ttl1	onset_ttl2	onset_ttl3	onset_ttl4	stimulus_delivery_success
4.98	1.0	cue	1	low_cue	n/a	n/a	n/a	n/a	n/a	n/a	n/a	l044.png	n/a	n/a	n/a	n/a	n/a
37.39	1.0	cue	2	high_cue	n/a	n/a	n/a	n/a	n/a	n/a	n/a	h047.png	n/a	n/a	n/a	n/a	n/a
70.69	1.0	cue	3	low_cue	n/a	n/a	n/a	n/a	n/a	n/a	n/a	l055.png	n/a	n/a	n/a	n/a	n/a
100.18	1.0	cue	4	high_cue	n/a	n/a	n/a	n/a	n/a	n/a	n/a	h033.png	n/a	n/a	n/a	n/a	n/a
132.58	1.0	cue	5	low_cue	n/a	n/a	n/a	n/a	n/a	n/a	n/a	l043.png	n/a	n/a	n/a	n/a	n/a
165.29	1.0	cue	6	high_cue	n/a	n/a	n/a	n/a	n/a	n/a	n/a	h053.png	n/a	n/a	n/a	n/a	n/a
199.39	1.0	cue	7	low_cue	n/a	n/a	n/a	n/a	n/a	n/a	n/a	l015.png	n/a	n/a	n/a	n/a	n/a
236.39	1.0	cue	8	low_cue	n/a	n/a	n/a	n/a	n/a	n/a	n/a	l053.png	n/a	n/a	n/a	n/a	n/a
266.48	1.0	cue	9	high_cue	n/a	n/a	n/a	n/a	n/a	n/a	n/a	h015.png	n/a	n/a	n/a	n/a	n/a
304.49	0.98	cue	10	high_cue	n/a	n/a	n/a	n/a	n/a	n/a	n/a	h027.png	n/a	n/a	n/a	n/a	n/a
335.89	1.0	cue	11	high_cue	n/a	n/a	n/a	n/a	n/a	n/a	n/a	h010.png	n/a	n/a	n/a	n/a	n/a
371.19	1.0	cue	12	low_cue	n/a	n/a	n/a	n/a	n/a	n/a	n/a	l021.png	n/a	n/a	n/a	n/a	n/a
7.6	1.8	expectrating	1	low_cue	n/a	13.48	Moderate	13.48	Moderate	0.37	1.43	l044.png	n/a	n/a	n/a	n/a	n/a
39.7	2.5	expectrating	2	high_cue	n/a	22.87	Moderate	22.87	Moderate	0.4	2.1	h047.png	n/a	n/a	n/a	n/a	n/a
72.99	2.04	expectrating	3	low_cue	n/a	25.23	Moderate	25.23	Moderate	0.4	1.64	l055.png	n/a	n/a	n/a	n/a	n/a
102.79	2.19	expectrating	4	high_cue	n/a	24.61	Moderate	24.61	Moderate	0.32	1.88	h033.png	n/a	n/a	n/a	n/a	n/a
135.2	2.2	expectrating	5	low_cue	n/a	25.23	Moderate	25.23	Moderate	0.3	1.9	l043.png	n/a	n/a	n/a	n/a	n/a
167.59	2.07	expectrating	6	high_cue	n/a	22.87	Moderate	22.87	Moderate	0.33	1.74	h053.png	n/a	n/a	n/a	n/a	n/a
201.79	2.61	expectrating	7	low_cue	n/a	28.52	Moderate	28.52	Moderate	0.37	2.24	l015.png	n/a	n/a	n/a	n/a	n/a
239.09	1.79	expectrating	8	low_cue	n/a	9.46	Weak	9.46	Weak	0.35	1.44	l053.png	n/a	n/a	n/a	n/a	n/a
269.7	1.98	expectrating	9	high_cue	n/a	27.6	Moderate	27.6	Moderate	0.4	1.58	h015.png	n/a	n/a	n/a	n/a	n/a
307.4	3.27	expectrating	10	high_cue	n/a	24.41	Moderate	24.41	Moderate	0.4	2.87	h027.png	n/a	n/a	n/a	n/a	n/a
338.29	1.81	expectrating	11	high_cue	n/a	32.74	Strong	32.74	Strong	0.37	1.44	h010.png	n/a	n/a	n/a	n/a	n/a
373.09	1.98	expectrating	12	low_cue	n/a	15.32	Moderate	15.32	Moderate	0.38	1.59	l021.png	n/a	n/a	n/a	n/a	n/a
16.82	29.64	stimulus	1	low_cue	high_stim	n/a	n/a	n/a	n/a	n/a	n/a	50c	16.82	20.83	25.83	29.64	success
50.01	62.38	stimulus	2	high_cue	med_stim	n/a	n/a	n/a	n/a	n/a	n/a	49c	50.01	53.77	58.77	62.38	success
77.91	89.81	stimulus	3	low_cue	low_stim	n/a	n/a	n/a	n/a	n/a	n/a	48c	77.91	81.41	86.41	89.81	success
108.22	120.12	stimulus	4	high_cue	low_stim	n/a	n/a	n/a	n/a	n/a	n/a	48c	108.22	111.72	116.72	120.12	success
145.53	157.89	stimulus	5	low_cue	med_stim	n/a	n/a	n/a	n/a	n/a	n/a	49c	145.53	149.29	154.29	157.9	success
177.82	190.64	stimulus	6	high_cue	high_stim	n/a	n/a	n/a	n/a	n/a	n/a	50c	177.82	181.83	186.83	190.64	success
212.11	224.01	stimulus	7	low_cue	low_stim	n/a	n/a	n/a	n/a	n/a	n/a	48c	212.11	215.61	220.61	224.01	success
245.41	258.24	stimulus	8	low_cue	high_stim	n/a	n/a	n/a	n/a	n/a	n/a	50c	245.41	249.42	254.42	258.23	success
278.21	291.03	stimulus	9	high_cue	high_stim	n/a	n/a	n/a	n/a	n/a	n/a	50c	278.21	282.22	287.22	291.03	success
317.61	329.98	stimulus	10	high_cue	med_stim	n/a	n/a	n/a	n/a	n/a	n/a	49c	317.61	321.37	326.37	329.98	success
344.61	356.51	stimulus	11	high_cue	low_stim	n/a	n/a	n/a	n/a	n/a	n/a	48c	344.61	348.11	353.11	356.51	success
383.24	395.6	stimulus	12	low_cue	med_stim	n/a	n/a	n/a	n/a	n/a	n/a	49c	383.24	387.0	392.0	395.61	success
28.79	2.8	outcomerating	1	low_cue	high_stim	29.86	Strong	29.86	Strong	0.48	2.32	task-pain_scale.png	n/a	n/a	n/a	n/a	success
65.49	2.02	outcomerating	2	high_cue	med_stim	19.67	Moderate	19.67	Moderate	0.42	1.61	task-pain_scale.png	n/a	n/a	n/a	n/a	success
88.3	2.47	outcomerating	3	low_cue	low_stim	15.32	Moderate	15.32	Moderate	0.63	1.83	task-pain_scale.png	n/a	n/a	n/a	n/a	success
123.69	2.29	outcomerating	4	high_cue	low_stim	9.69	Weak	9.69	Weak	0.47	1.82	task-pain_scale.png	n/a	n/a	n/a	n/a	success
156.39	2.37	outcomerating	5	low_cue	med_stim	21.29	Moderate	21.29	Moderate	0.7	1.67	task-pain_scale.png	n/a	n/a	n/a	n/a	success
190.59	2.68	outcomerating	6	high_cue	high_stim	31.64	Strong	31.64	Strong	0.4	2.28	task-pain_scale.png	n/a	n/a	n/a	n/a	success
230.98	2.27	outcomerating	7	low_cue	low_stim	13.42	Moderate	13.42	Moderate	0.65	1.62	task-pain_scale.png	n/a	n/a	n/a	n/a	success
261.19	2.53	outcomerating	8	low_cue	high_stim	25.43	Moderate	25.43	Moderate	0.37	2.17	task-pain_scale.png	n/a	n/a	n/a	n/a	success
290.69	1.99	outcomerating	9	high_cue	high_stim	26.67	Moderate	26.67	Moderate	0.45	1.54	task-pain_scale.png	n/a	n/a	n/a	n/a	success
329.69	2.61	outcomerating	10	high_cue	med_stim	16.26	Moderate	16.26	Moderate	0.68	1.93	task-pain_scale.png	n/a	n/a	n/a	n/a	success
358.3	2.67	outcomerating	11	high_cue	low_stim	11.81	Moderate	11.81	Moderate	0.43	2.23	task-pain_scale.png	n/a	n/a	n/a	n/a	success
394.89	3.02	outcomerating	12	low_cue	med_stim	21.2	Moderate	21.2	Moderate	0.48	2.53	task-pain_scale.png	n/a	n/a	n/a	n/a	success
