ISI01_biopac,ISI01_duration,ISI01_onset,ISI02_biopac,ISI02_duration,ISI02_onset,ISI03_biopac,ISI03_duration,ISI03_onset,ITI_biopac,ITI_duration,ITI_onset,delay_between_medoc,event01_cue_biopac,event01_cue_filename,event01_cue_onset,event01_cue_type,event02_expect_RT,event02_expect_angle,event02_expect_angle_label,event02_expect_biopac,event02_expect_displayonset,event02_expect_responseonset,event03_stimulusC_RT,event03_stimulusC_reseponseonset,event03_stimulusC_response,event03_stimulusC_responsekeyname,event03_stimulus_C_stim_filename,event03_stimulus_C_stim_match,event03_stimulus_C_stim_num,event03_stimulus_P_delay_between_medoc,event03_stimulus_P_trigger,event03_stimulus_V_filename,event03_stimulus_V_patientid,event03_stimulus_biopac,event03_stimulus_displayonset,event03_stimulus_type,event04_actual_RT,event04_actual_angle,event04_actual_angle_label,event04_actual_biopac,event04_actual_displayonset,event04_actual_responseonset,param_cond_type,param_counterbalance_block_num,param_counterbalance_ver,param_cue_type,param_end_biopac,param_end_instruct_onset,param_experiment_duration,param_run_num,param_start_biopac,param_stimulus_type,param_task_name,param_trigger_onset,session_id,src_subject_id,trial_no
1616596703.66051,1.59124445915222,1616596703.6477199,1616596709.5855598,0.255696535110474,1616596709.5832698,1616596718.86087,1.98557472229004,1616596718.85339,1616596699.74859,2.89418363571167,1616596699.74627,0.061136007308959996,1616596702.6603801,h024.png,1616596702.64735,high_cue,3.7516100406646697,41.1413196632279,FIX,1616596705.2766302,1616596705.26499,1616596709.0166,0,0,0,,,,0,0,Command Recieved: TRIGGER_AND_Response: RESULT_OK,,,1616596709.90403,1616596709.90299,high_stim,2.97118353843689,79.5922886875099,FIX,1616596720.8596098,1616596720.85414,1616596723.82532,6,2,3,high_cue,1616597095.99403,1616597095.97736,399.00862574577303,3,1616596696.97086,high_stim,pain,1616596696.96874,4,6,1
1616596726.96048,1.98255252838135,1616596726.95641,1616596732.97702,5.86364054679871,1616596732.97533,1616596747.8605099,4.29142904281616,1616596747.8475401,1616596724.89077,1.0509672164916999,1616596724.8889802,0.0991621017456055,1616596725.9603698,l046.png,1616596725.9560401,low_cue,1.2349042892456101,52.808992460295705,FIX,1616596728.95948,1616596728.95716,1616596730.19207,0,0,0,,,,0,0,Command Recieved: TRIGGER_AND_Response: RESULT_OK,,,1616596738.9407198,1616596738.9391801,high_stim,2.29285573959351,66.8335800497948,FIX,1616596752.1598,1616596752.1491401,1616596754.4420002,3,2,3,low_cue,1616597095.99403,1616597095.97736,399.00862574577303,3,1616596696.97086,high_stim,pain,1616596696.96874,4,6,2
1616596757.76021,1.38773512840271,1616596757.75123,1616596763.1771,0.9690487384796139,1616596763.16992,1616596773.1602302,5.481991529464719,1616596773.15698,1616596756.1768599,0.572623252868652,1616596756.16731,0.0541090965270996,1616596756.76035,l017.png,1616596756.75086,low_cue,1.4068536758422898,16.297488437888,FIX,1616596759.15961,1616596759.15175,1616596760.55861,0,0,0,,,,0,0,Command Recieved: TRIGGER_AND_Response: RESULT_OK,,,1616596764.19485,1616596764.1937802,high_stim,2.33443570137024,41.9190641134269,FIX,1616596778.6601698,1616596778.65903,1616596780.99346,3,2,3,low_cue,1616597095.99403,1616597095.97736,399.00862574577303,3,1616596696.97086,high_stim,pain,1616596696.96874,4,6,3
1616596792.86029,1.39131331443787,1616596792.84765,1616596798.26829,1.17262697219849,1616596798.26634,1616596808.46052,3.88549304008484,1616596808.45347,1616596782.6935198,9.16282725334167,1616596782.67719,0.056333065032959005,1616596791.86001,h039.png,1616596791.84728,high_cue,1.73408341407776,68.6293777306568,FIX,1616596794.25973,1616596794.2481802,1616596795.98226,0,0,0,,,,0,0,Command Recieved: TRIGGER_AND_Response: RESULT_OK,,,1616596799.49696,1616596799.49606,high_stim,2.08706855773926,39.805571092265204,FIX,1616596812.35972,1616596812.3549302,1616596814.4420002,6,2,3,high_cue,1616597095.99403,1616597095.97736,399.00862574577303,3,1616596696.97086,high_stim,pain,1616596696.96874,4,6,4
1616596817.96039,1.98194885253906,1616596817.9570198,1616596823.97762,11.1630387306213,1616596823.97593,1616596844.1610699,4.28884863853455,1616596844.15012,1616596816.37658,0.566791296005249,1616596816.37309,0.0612499713897705,1616596816.96123,l013.png,1616596816.95664,low_cue,1.71756625175476,8.29714496983688,FIX,1616596819.95928,1616596819.9577599,1616596821.6753302,0,0,0,,,,0,0,Command Recieved: TRIGGER_AND_Response: RESULT_OK,,,1616596835.20213,1616596835.20111,low_stim,2.15705347061157,16.260204708312,FIX,1616596848.45959,1616596848.45172,1616596850.6087801,1,2,3,low_cue,1616597095.99403,1616597095.97736,399.00862574577303,3,1616596696.97086,low_stim,pain,1616596696.96874,4,6,5
1616596860.3605402,1.9828052520752,1616596860.35616,1616596866.37648,19.6638917922974,1616596866.3750699,1616596895.0609,9.686531305313109,1616596895.0524302,1616596852.48825,6.85345387458801,1616596852.4865599,0.0816099643707275,1616596859.36037,h032.png,1616596859.3557901,high_cue,2.83515739440918,55.6096855912874,FIX,1616596862.35943,1616596862.35691,1616596865.19207,0,0,0,,,,0,0,Command Recieved: TRIGGER_AND_Response: RESULT_OK,,,1616596886.12249,1616596886.1213,low_stim,2.5360267162323,5.1731688792065995,FIX,1616596904.75966,1616596904.75605,1616596907.2920802,4,2,3,high_cue,1616597095.99403,1616597095.97736,399.00862574577303,3,1616596696.97086,low_stim,pain,1616596696.96874,4,6,6
1616596913.36024,1.1963782310485802,1616596913.34259,1616596918.57954,3.36109328269958,1616596918.57787,1616596930.9600198,6.58981084823608,1616596930.9491599,1616596908.7761,3.56580448150635,1616596908.77422,0.0334329605102539,1616596912.36112,l022.png,1616596912.35889,low_cue,1.80114197731018,49.3987053549955,FIX,1616596914.56065,1616596914.55971,1616596916.36085,0,0,0,,,,0,0,Command Recieved: TRIGGER_AND_Response: RESULT_OK,,,1616596921.97439,1616596921.97305,med_stim,3.1903562545776403,52.9921513056854,FIX,1616596937.55938,1616596937.55162,1616596940.7419698,2,2,3,low_cue,1616597095.99403,1616597095.97736,399.00862574577303,3,1616596696.97086,med_stim,pain,1616596696.96874,4,6,7
1616596949.66028,1.5828392505645799,1616596949.65613,1616596955.27699,0.564074516296387,1616596955.27489,1616596964.86061,2.19383835792542,1616596964.84513,1616596941.57663,7.07030248641968,1616596941.56978,0.0715858936309814,1616596948.66018,h014.png,1616596948.65576,high_cue,1.8520648479461699,84.6742593752323,FIX,1616596951.2597198,1616596951.25673,1616596953.10879,0,0,0,,,,0,0,Command Recieved: TRIGGER_AND_Response: RESULT_OK,,,1616596955.91273,1616596955.9112,med_stim,3.00127911567688,31.9081069356532,FIX,1616596967.06366,1616596967.06262,1616596970.0639,5,2,3,high_cue,1616597095.99403,1616597095.97736,399.00862574577303,3,1616596696.97086,med_stim,pain,1616596696.96874,4,6,8
1616596977.9603,0.888950347900391,1616596977.9500198,1616596983.07692,1.7703757286071797,1616596983.06859,1616596993.86022,2.38301968574524,1616596993.85595,1616596971.09328,5.85911226272583,1616596971.08079,0.0555310249328613,1616596976.9602098,h001.png,1616596976.94964,high_cue,3.67497634887695,39.305569282244605,FIX,1616596978.85978,1616596978.85035,1616596982.52533,0,0,0,,,,0,0,Command Recieved: TRIGGER_AND_Response: RESULT_OK,,,1616596984.89635,1616596984.8951,med_stim,2.93535041809082,24.2277453179542,FIX,1616596996.25933,1616596996.25684,1616596999.19219,5,2,3,high_cue,1616597095.99403,1616597095.97736,399.00862574577303,3,1616596696.97086,med_stim,pain,1616596696.96874,4,6,9
1616597006.36048,1.9950280189514198,1616597006.34394,1616597012.38144,1.5594453811645501,1616597012.37952,1616597022.9602199,5.48883557319641,1616597022.95013,1616597000.27666,5.0649132728576705,1616597000.2750099,0.0569040775299072,1616597005.3622198,l004.png,1616597005.36024,low_cue,1.1172502040863,12.605577354384598,FIX,1616597008.36221,1616597008.36136,1616597009.47861,0,0,0,,,,0,0,Command Recieved: TRIGGER_AND_Response: RESULT_OK,,,1616597013.99848,1616597013.99683,med_stim,1.92320132255554,12.6572733672233,FIX,1616597028.4594,1616597028.4521801,1616597030.37538,2,2,3,low_cue,1616597095.99403,1616597095.97736,399.00862574577303,3,1616596696.97086,med_stim,pain,1616596696.96874,4,6,10
1616597039.0604,0.88283109664917,1616597039.05614,1616597043.97711,5.8643283843994105,1616597043.9746401,1616597058.86043,2.79211783409119,1616597058.84685,1616597032.47625,5.569667100906369,1616597032.47035,0.0900721549987793,1616597038.0601401,h011.png,1616597038.05576,high_cue,2.0356652736663796,53.49855887949371,FIX,1616597039.9595098,1616597039.95647,1616597041.99214,0,0,0,,,,0,0,Command Recieved: TRIGGER_AND_Response: RESULT_OK,,,1616597049.93031,1616597049.9295402,low_stim,3.27743148803711,20.9055693369155,FIX,1616597061.65951,1616597061.64789,1616597064.9253302,4,2,3,high_cue,1616597095.99403,1616597095.97736,399.00862574577303,3,1616596696.97086,low_stim,pain,1616596696.96874,4,6,11
1616597072.26051,0.8871178627014159,1616597072.25185,1616597077.17698,0.76861834526062,1616597077.17035,1616597086.96032,4.98163437843323,1616597086.95733,1616597065.67635,5.57393980026245,1616597065.66606,0.0268111228942871,1616597071.26142,l056.png,1616597071.25148,low_cue,1.68987703323364,10.984127328826402,FIX,1616597073.16006,1616597073.1521802,1616597074.8420599,0,0,0,,,,0,0,Command Recieved: TRIGGER_AND_Response: RESULT_OK,,,1616597077.9676301,1616597077.9663901,low_stim,0.016836404800415,,FIX,1616597091.96014,1616597091.9592,1616597091.9760401,1,2,3,low_cue,1616597095.99403,1616597095.97736,399.00862574577303,3,1616596696.97086,low_stim,pain,1616596696.96874,4,6,12
1616594464.5314,1.59460473060608,1616594464.5293698,1616594470.18325,6.34249711036682,1616594470.1814802,1616594485.54382,7.08676981925964,1616594485.53721,1616594462.84706,0.596776008605957,1616594462.8287401,0.10005903244018599,1616594463.44955,l022.png,1616594463.44563,low_cue,2.45125150680542,48.4085744224852,FIX,1616594466.17592,1616594466.16331,1616594468.61457,0,0,0,,,,0,0,Command Recieved: TRIGGER_AND_Response: RESULT_OK,,,1616594476.64372,1616594476.64276,high_stim,2.50208234786987,63.5406604732907,FIX,1616594492.64276,1616594492.63985,1616594495.14194,3,1,3,low_cue,1616594858.67678,1616594858.6596901,398.61708164215105,-2,1616594460.04896,high_stim,pain,1616594460.0426,4,6,13
1616594507.04735,2.07874965667725,1616594507.0452302,1616594513.16629,4.45980024337769,1616594513.16418,1616594526.64377,9.38811063766479,1616594526.63587,1616594496.81031,9.217047452926641,1616594496.8080802,0.0654139518737793,1616594506.04709,h047.png,1616594506.04485,high_cue,1.80092549324036,78.31862521260899,FIX,1616594509.14744,1616594509.14601,1616594510.94694,0,0,0,,,,0,0,Command Recieved: TRIGGER_AND_Response: RESULT_OK,,,1616594517.69106,1616594517.6900198,med_stim,1.86899757385254,30.4418052151987,FIX,1616594536.0427198,1616594536.0393698,1616594537.90837,5,1,3,high_cue,1616594858.67678,1616594858.6596901,398.61708164215105,-2,1616594460.04896,med_stim,pain,1616594460.0426,4,6,14
1616594541.74373,2.0824775695800803,1616594541.7415,1616594547.86215,0.463529109954834,1616594547.86045,1616594557.3439698,0.49333095550537104,1616594557.33065,1616594540.0762901,0.650805950164795,1616594540.07421,0.0362210273742676,1616594540.74345,l014.png,1616594540.74113,low_cue,3.0180892944335898,43.8639719603119,FIX,1616594543.85924,1616594543.8422801,1616594546.86037,0,0,0,,,,0,0,Command Recieved: TRIGGER_AND_Response: RESULT_OK,,,1616594548.3622901,1616594548.36093,low_stim,2.56840324401855,17.7097245238628,FIX,1616594557.84864,1616594557.8475099,1616594560.41591,1,1,3,low_cue,1616594858.67678,1616594858.6596901,398.61708164215105,-2,1616594460.04896,low_stim,pain,1616594460.0426,4,6,15
1616594571.34475,0.488106489181519,1616594571.33587,1616594575.8606,0.769756555557251,1616594575.85422,1616594585.64325,9.082771539688109,1616594585.6412,1616594561.89366,8.44271945953369,1616594561.88234,0.0583460330963135,1616594570.34376,l042.png,1616594570.3355,low_cue,2.48902654647827,41.1413196632279,FIX,1616594571.84262,1616594571.83606,1616594574.3250802,0,0,0,,,,0,0,Command Recieved: TRIGGER_AND_Response: RESULT_OK,,,1616594576.68531,1616594576.68325,low_stim,1.3173253536224399,8.587935596476031,FIX,1616594594.7462,1616594594.7446,1616594596.06192,1,1,3,low_cue,1616594858.67678,1616594858.6596901,398.61708164215105,-2,1616594460.04896,low_stim,pain,1616594460.0426,4,6,16
1616594604.84461,2.09228253364563,1616594604.83169,1616594610.97803,3.65666055679321,1616594610.96732,1616594623.64499,2.9852685928344704,1616594623.63871,1616594598.7820199,5.0461688041687,1616594598.77944,0.0863950252532959,1616594603.85098,h031.png,1616594603.84799,high_cue,1.69272518157959,96.546290783294,FIX,1616594606.95906,1616594606.94915,1616594608.64188,0,0,0,,,,0,0,Command Recieved: TRIGGER_AND_Response: RESULT_OK,,,1616594614.71354,1616594614.7116401,low_stim,2.7851996421814,57.796960725595,FIX,1616594626.64218,1616594626.63983,1616594629.42503,4,1,3,high_cue,1616594858.67678,1616594858.6596901,398.61708164215105,-2,1616594460.04896,low_stim,pain,1616594460.0426,4,6,17
1616594632.34342,0.982023000717163,1616594632.34195,1616594637.36255,0.46348667144775396,1616594637.36049,1616594646.84337,2.79328727722168,1616594646.8306901,1616594630.69381,0.63347601890564,1616594630.69134,0.0424070358276367,1616594631.34326,h003.png,1616594631.3415802,high_cue,2.3843626976013197,60.8085431846313,FIX,1616594633.34313,1616594633.34233,1616594635.72669,0,0,0,,,,0,0,Command Recieved: TRIGGER_AND_Response: RESULT_OK,,,1616594637.86792,1616594637.8670402,med_stim,3.2514712810516397,71.4893632693038,FIX,1616594649.6493099,1616594649.6484098,1616594652.8998802,5,1,3,high_cue,1616594858.67678,1616594858.6596901,398.61708164215105,-2,1616594460.04896,med_stim,pain,1616594460.0426,4,6,18
1616594662.1431599,0.987578630447388,1616594662.1364,1616594667.15983,6.9690408706665,1616594667.1549401,1616594683.14628,3.57974410057068,1616594683.1442301,1616594653.67631,7.458308219909671,1616594653.66657,0.0387380123138428,1616594661.14323,h030.png,1616594661.13602,high_cue,1.95499920845032,46.8052865215132,FIX,1616594663.14264,1616594663.13677,1616594665.09177,0,0,0,,,,0,0,Command Recieved: TRIGGER_AND_Response: RESULT_OK,,,1616594674.16403,1616594674.16322,low_stim,1.6675527095794698,46.316912405793296,FIX,1616594686.74636,1616594686.7455802,1616594688.41313,4,1,3,high_cue,1616594858.67678,1616594858.6596901,398.61708164215105,-2,1616594460.04896,low_stim,pain,1616594460.0426,4,6,19
1616594695.8438098,1.4916801452636699,1616594695.8323,1616594701.35306,7.97295546531677,1616594701.3510199,1616594718.34325,2.08328628540039,1616594718.3406901,1616594690.7767198,4.06107616424561,1616594690.76374,0.0789999961853027,1616594694.8436,l047.png,1616594694.83192,low_cue,2.01761698722839,23.8925023080266,FIX,1616594697.34287,1616594697.33286,1616594699.3504698,0,0,0,,,,0,0,Command Recieved: TRIGGER_AND_Response: RESULT_OK,,,1616594709.40477,1616594709.40346,high_stim,3.15142059326172,56.587728016097294,FIX,1616594720.4423301,1616594720.44147,1616594723.59289,3,1,3,low_cue,1616594858.67678,1616594858.6596901,398.61708164215105,-2,1616594460.04896,high_stim,pain,1616594460.0426,4,6,20
1616594726.1453,2.08037543296814,1616594726.1436,1616594732.26436,5.66142702102661,1616594732.26255,1616594746.94322,3.08928823471069,1616594746.93469,1616594724.47688,0.66518497467041,1616594724.45964,0.0606720447540283,1616594725.14501,l051.png,1616594725.14323,low_cue,3.26806545257568,49.95544894005221,FIX,1616594728.2451699,1616594728.24438,1616594731.51245,0,0,0,,,,0,0,Command Recieved: TRIGGER_AND_Response: RESULT_OK,,,1616594737.98679,1616594737.98556,med_stim,1.78922820091248,51.1964134291043,FIX,1616594750.04279,1616594750.03584,1616594751.82507,2,1,3,low_cue,1616594858.67678,1616594858.6596901,398.61708164215105,-2,1616594460.04896,med_stim,pain,1616594460.0426,4,6,21
1616594756.54343,0.885708093643188,1616594756.53827,1616594761.4598,7.6672062873840305,1616594761.45677,1616594778.1438801,3.5943236351013197,1616594778.12965,1616594754.05924,1.4708356857299798,1616594754.05401,0.0749480724334717,1616594755.54346,l033.png,1616594755.5379,low_cue,3.21980047225952,31.5169399725947,FIX,1616594757.44284,1616594757.4386,1616594760.65841,0,0,0,,,,0,0,Command Recieved: TRIGGER_AND_Response: RESULT_OK,,,1616594769.2007,1616594769.19959,med_stim,3.80150556564331,19.6851075818423,FIX,1616594781.7497098,1616594781.74767,1616594785.54918,2,1,3,low_cue,1616594858.67678,1616594858.6596901,398.61708164215105,-2,1616594460.04896,med_stim,pain,1616594460.0426,4,6,22
1616594798.94306,1.68656301498413,1616594798.9374099,1616594804.65976,1.36776351928711,1616594804.65621,1616594815.0449,0.48055624961853005,1616594815.0434198,1616594786.11756,11.808852195739698,1616594786.11597,0.0511438846588135,1616594797.94368,h037.png,1616594797.93704,high_cue,2.28716230392456,63.749757630311095,FIX,1616594800.6426198,1616594800.63805,1616594802.92521,0,0,0,,,,0,0,Command Recieved: TRIGGER_AND_Response: RESULT_OK,,,1616594806.0776901,1616594806.07604,high_stim,2.33431553840637,47.1090897372578,FIX,1616594815.54486,1616594815.5436099,1616594817.87792,6,1,3,high_cue,1616594858.67678,1616594858.6596901,398.61708164215105,-2,1616594460.04896,high_stim,pain,1616594460.0426,4,6,23
1616594823.64286,1.19402027130127,1616594823.62996,1616594828.86724,7.65873646736145,1616594828.86524,1616594845.54349,9.08585500717163,1616594845.53812,1616594819.5765,3.0630474090576203,1616594819.56177,0.0652308464050293,1616594822.64294,h001.png,1616594822.62958,high_cue,2.4843800067901602,75.49171135675459,FIX,1616594824.84801,1616594824.84708,1616594827.33146,0,0,0,,,,0,0,Command Recieved: TRIGGER_AND_Response: RESULT_OK,,,1616594836.59044,1616594836.58974,high_stim,3.3681409358978303,60.3722279513457,FIX,1616594854.64273,1616594854.64152,1616594858.00966,6,1,3,high_cue,1616594858.67678,1616594858.6596901,398.61708164215105,-2,1616594460.04896,high_stim,pain,1616594460.0426,4,6,24
1615990790.1231802,1.19296598434448,1615990790.11446,1615990795.3568199,5.95767998695374,1615990795.34975,1615990810.32429,1.1854283809661899,1615990810.322,1615990786.92366,2.19570970535278,1615990786.91327,0.0364480018615723,1615990789.133,h045.png,1615990789.13076,high_cue,1.90669918060303,86.4531463425004,FIX,1615990791.33899,1615990791.3315802,1615990793.23828,0,0,0,,,,0,0,Command Recieved: TRIGGER_AND_Response: RESULT_OK,,,1615990801.3538802,1615990801.3529,low_stim,3.0012443065643297,78.2317110679794,FIX,1615990811.5233,1615990811.52245,1615990814.52369,4,1,3,high_cue,1615991183.36425,1615991183.36111,399.252405405045,5,1615990784.11081,low_stim,pain,1615990784.10871,3,6,25
1615990824.72998,2.18005847930908,1615990824.72737,1615990830.94819,1.66107130050659,1615990830.9463599,1615990841.62377,4.29042506217957,1615990841.617,1615990815.55896,8.15105533599854,1615990815.55729,0.0304050445556641,1615990823.72916,h035.png,1615990823.7270002,high_cue,2.0509014129638703,79.2807247406265,FIX,1615990826.9289901,1615990826.92819,1615990828.97909,0,0,0,,,,0,0,Command Recieved: TRIGGER_AND_Response: RESULT_OK,,,1615990832.63901,1615990832.6382802,low_stim,3.0361986160278303,53.49855887949371,FIX,1615990845.9227,1615990845.9186099,1615990848.95481,4,1,3,high_cue,1615991183.36425,1615991183.36111,399.252405405045,5,1615990784.11081,low_stim,pain,1615990784.10871,3,6,26
1615990857.62476,0.984455823898315,1615990857.6229699,1615990862.64364,1.6659197807312,1615990862.64151,1615990873.32365,3.89527034759521,1615990873.31216,1615990849.95647,6.65495705604553,1615990849.95344,0.0668950080871582,1615990856.62431,h052.png,1615990856.6226,high_cue,1.6507306098938,95.45155109871271,FIX,1615990858.62435,1615990858.62335,1615990860.27408,0,0,0,,,,0,0,Command Recieved: TRIGGER_AND_Response: RESULT_OK,,,1615990864.37604,1615990864.3750901,med_stim,2.4343507289886497,50.0472149986114,FIX,1615990877.23165,1615990877.2302802,1615990879.6646302,5,1,3,high_cue,1615991183.36425,1615991183.36111,399.252405405045,5,1615990784.11081,med_stim,pain,1615990784.10871,3,6,27
1615990890.42333,0.988892555236816,1615990890.41854,1615990895.43906,1.67035555839539,1615990895.43707,1615990906.1264,1.1830348968505902,1615990906.1243901,1615990881.25617,8.15993022918701,1615990881.24845,0.0390520095825195,1615990889.4232302,l046.png,1615990889.41816,low_cue,,,FIX,1615990891.42245,1615990891.41891,,0,0,0,,,,0,0,Command Recieved: TRIGGER_AND_Response: RESULT_OK,,,1615990897.1484401,1615990897.1471698,med_stim,2.28432011604309,57.14024796027821,FIX,1615990907.33909,1615990907.32484,1615990909.60916,2,1,3,low_cue,1615991183.36425,1615991183.36111,399.252405405045,5,1615990784.11081,med_stim,pain,1615990784.10871,3,6,28
1615990914.5234098,2.89657354354858,1615990914.51085,1615990921.44866,11.5606536865234,1615990921.44678,1615990942.02298,5.18631505966187,1615990942.02111,1615990911.35661,2.16525316238403,1615990911.34301,0.0629310607910156,1615990913.52871,h007.png,1615990913.52715,high_cue,2.63449263572693,87.6909372109743,FIX,1615990917.42975,1615990917.4286098,1615990920.0631,0,0,0,,,,0,0,Command Recieved: TRIGGER_AND_Response: RESULT_OK,,,1615990933.07166,1615990933.0708802,high_stim,1.9009468555450402,24.102234501161103,FIX,1615990947.2241302,1615990947.22305,1615990949.1239998,6,1,3,high_cue,1615991183.36425,1615991183.36111,399.252405405045,5,1615990784.11081,high_stim,pain,1615990784.10871,3,6,29
1615990953.02722,2.18221044540405,1615990953.02522,1615990959.24607,5.16322636604309,1615990959.2442,1615990973.42308,1.79127335548401,1615990973.41615,1615990951.2565598,0.7673435211181641,1615990951.24122,0.0447990894317627,1615990952.02703,l016.png,1615990952.02484,low_cue,2.0342159271240203,56.24548280546289,FIX,1615990955.22883,1615990955.2260401,1615990957.26025,0,0,0,,,,0,0,Command Recieved: TRIGGER_AND_Response: RESULT_OK,,,1615990964.4539402,1615990964.45281,high_stim,1.6713767051696797,60.1972149536823,FIX,1615990975.22274,1615990975.21683,1615990976.8882,3,1,3,low_cue,1615991183.36425,1615991183.36111,399.252405405045,5,1615990784.11081,high_stim,pain,1615990784.10871,3,6,30
1615990985.62273,0.986723899841309,1615990985.62071,1615990990.64117,6.368183135986331,1615990990.63924,1615991006.03028,4.77911305427551,1615991006.0283198,1615990979.23911,5.3732793331146205,1615990979.2349901,0.0368940830230713,1615990984.62273,h039.png,1615990984.62033,high_cue,2.11772775650024,80.7644409068341,FIX,1615990986.62212,1615990986.6210802,1615990988.73881,0,0,0,,,,0,0,Command Recieved: TRIGGER_AND_Response: RESULT_OK,,,1615990997.04653,1615990997.04506,high_stim,2.65111827850342,35.8583597764751,FIX,1615991010.8313198,1615991010.83011,1615991013.48123,6,1,3,high_cue,1615991183.36425,1615991183.36111,399.252405405045,5,1615990784.11081,high_stim,pain,1615990784.10871,3,6,31
1615991022.12329,2.18977856636047,1615991022.11765,1615991028.34006,5.1707935333252,1615991028.3366401,1615991042.5284,4.28216958045959,1615991042.52526,1615991014.86676,6.243349313735959,1615991014.86495,0.0402960777282715,1615991021.1230302,h046.png,1615991021.11728,high_cue,2.31977772712708,70.9065079995144,FIX,1615991024.32201,1615991024.31847,1615991026.63825,0,0,0,,,,0,0,Command Recieved: TRIGGER_AND_Response: RESULT_OK,,,1615991033.5491,1615991033.5482,med_stim,1.90093994140625,58.2985703304943,FIX,1615991046.82803,1615991046.82686,1615991048.7278,5,1,3,high_cue,1615991183.36425,1615991183.36111,399.252405405045,5,1615990784.11081,med_stim,pain,1615990784.10871,3,6,32
1615991053.62372,2.1946992874145503,1615991053.61273,1615991059.85009,2.95904135704041,1615991059.84839,1615991071.82334,1.18790936470032,1615991071.81952,1615991050.856,1.76325106620789,1615991050.84503,0.043673038482665995,1615991052.62335,l041.png,1615991052.61236,low_cue,1.38405442237854,33.560877712192806,FIX,1615991055.83109,1615991055.83022,1615991057.2142801,0,0,0,,,,0,0,Command Recieved: TRIGGER_AND_Response: RESULT_OK,,,1615991062.85328,1615991062.85202,low_stim,2.5681533813476602,36.6388675289486,FIX,1615991073.02212,1615991073.01997,1615991075.58812,1,1,3,low_cue,1615991183.36425,1615991183.36111,399.252405405045,5,1615990784.11081,low_stim,pain,1615990784.10871,3,6,33
1615991081.52477,0.884291648864746,1615991081.52314,1615991086.44318,4.3657922744751,1615991086.4416401,1615991099.82328,4.29414057731628,1615991099.81329,1615991077.05649,3.47024393081665,1615991077.03813,0.0405778884887695,1615991080.5248,l021.png,1615991080.52276,low_cue,1.9509165287017802,42.0726520082591,FIX,1615991082.42431,1615991082.42347,1615991084.3743901,0,0,0,,,,0,0,Command Recieved: TRIGGER_AND_Response: RESULT_OK,,,1615991090.84939,1615991090.84849,high_stim,1.9900794029235802,52.4873881971436,FIX,1615991104.13254,1615991104.1315699,1615991106.12165,3,1,3,low_cue,1615991183.36425,1615991183.36111,399.252405405045,5,1615990784.11081,high_stim,pain,1615990784.10871,3,6,34
1615991115.82324,0.6881680488586429,1615991115.81926,1615991120.53987,3.5697438716888397,1615991120.53769,1615991133.12759,16.781715154647802,1615991133.12571,1615991108.1561198,6.658604383468631,1615991108.14973,0.0612599849700928,1615991114.82324,l024.png,1615991114.81889,low_cue,1.3187575340271,53.8203795520211,FIX,1615991116.52261,1615991116.5195198,1615991117.83828,0,0,0,,,,0,0,Command Recieved: TRIGGER_AND_Response: RESULT_OK,,,1615991124.17006,1615991124.16915,low_stim,2.75620341300964,9.04466653441065,FIX,1615991149.9330099,1615991149.9319801,1615991152.68818,1,1,3,low_cue,1615991183.36425,1615991183.36111,399.252405405045,5,1615990784.11081,low_stim,pain,1615990784.10871,3,6,35
1615991157.12348,0.589432239532471,1615991157.1179998,1615991161.7398,3.5710468292236297,1615991161.73638,1615991174.32579,4.98301815986633,1615991174.32441,1615991153.9556599,2.15813183784485,1615991153.95015,0.0406169891357422,1615991156.12328,l049.png,1615991156.11762,low_cue,2.2867410182952903,32.418449949643104,FIX,1615991157.72261,1615991157.71822,1615991160.00496,0,0,0,,,,0,0,Command Recieved: TRIGGER_AND_Response: RESULT_OK,,,1615991165.3500302,1615991165.3487,med_stim,2.1843204498291002,27.4991387310472,FIX,1615991179.3274,1615991179.32628,1615991181.5106,2,1,3,low_cue,1615991183.36425,1615991183.36111,399.252405405045,5,1615990784.11081,med_stim,pain,1615990784.10871,3,6,36
1615989371.83979,0.5231242179870611,1615989371.8355598,1615989376.40656,4.75475358963013,1615989376.4039302,1615989390.17804,0.9829494953155521,1615989390.17573,1615989362.87393,7.794479131698611,1615989362.86554,0.0880129337310791,1615989370.67307,l013.png,1615989370.66845,low_cue,1.60224032402039,54.6496501050374,FIX,1615989372.38917,1615989372.38576,1615989373.988,0,0,0,,,,0,0,Command Recieved: TRIGGER_AND_Response: RESULT_OK,,,1615989381.25808,1615989381.25718,low_stim,2.55114459991455,77.5971168782348,FIX,1615989391.17731,1615989391.1761,1615989393.72725,1,2,3,low_cue,1615989758.91535,1615989758.91324,398.838037252426,2,1615989360.07759,low_stim,pain,1615989360.0752,3,6,37
1615989396.78035,1.28048825263977,1615989396.7781901,1615989402.09879,1.76183867454529,1615989402.0968401,1615989412.87289,3.49115443229675,1615989412.8675199,1615989395.21291,0.548847675323486,1615989395.2109401,0.0426750183105469,1615989395.7799,l004.png,1615989395.7778199,low_cue,1.809330701828,30.884945330728602,FIX,1615989398.08009,1615989398.07868,1615989399.88801,0,0,0,,,,0,0,Command Recieved: TRIGGER_AND_Response: RESULT_OK,,,1615989403.90308,1615989403.90202,med_stim,2.4525024890899703,59.42975224975579,FIX,1615989416.37205,1615989416.36883,1615989418.82133,2,2,3,low_cue,1615989758.91535,1615989758.91324,398.838037252426,2,1615989360.07759,med_stim,pain,1615989360.0752,3,6,38
1615989422.37317,1.88760948181152,1615989422.37107,1615989428.29197,3.96873569488525,1615989428.28994,1615989441.28021,5.08055925369263,1615989441.27812,1615989420.38896,0.9728722572326659,1615989420.387,0.044166088104248,1615989421.37313,l046.png,1615989421.3707,low_cue,1.56746864318848,84.70143493010009,FIX,1615989424.2725801,1615989424.27178,1615989425.83925,0,0,0,,,,0,0,Command Recieved: TRIGGER_AND_Response: RESULT_OK,,,1615989432.30586,1615989432.30406,low_stim,2.30799674987793,22.530979230465398,FIX,1615989446.38096,1615989446.38002,1615989448.68802,1,2,3,low_cue,1615989758.91535,1615989758.91324,398.838037252426,2,1615989360.07759,low_stim,pain,1615989360.0752,3,6,39
1615989452.37337,1.39309096336365,1615989452.36559,1615989457.80674,2.05772972106934,1615989457.80095,1615989468.87364,3.48693585395813,1615989468.87174,1615989450.41677,0.944926500320435,1615989450.41486,0.0649189949035645,1615989451.37276,l036.png,1615989451.36521,low_cue,2.33849954605103,74.84593194968741,FIX,1615989453.7839599,1615989453.7827802,1615989456.1212802,0,0,0,,,,0,0,Command Recieved: TRIGGER_AND_Response: RESULT_OK,,,1615989459.9251401,1615989459.92414,high_stim,2.01764464378357,41.0995062576181,FIX,1615989472.37379,1615989472.37305,1615989474.39069,3,2,3,low_cue,1615989758.91535,1615989758.91324,398.838037252426,2,1615989360.07759,high_stim,pain,1615989360.0752,3,6,40
1615989481.07919,1.88238477706909,1615989481.0762901,1615989487.0071,4.86351084709167,1615989486.9951699,1615989500.8735301,1.9916706085205098,1615989500.8670099,1615989476.41117,3.65237355232239,1615989476.40789,0.0382349491119385,1615989480.07955,h021.png,1615989480.0759199,high_cue,2.3843936920166002,143.834523165536,FIX,1615989482.97804,1615989482.9770002,1615989485.3614,0,0,0,,,,0,0,Command Recieved: TRIGGER_AND_Response: RESULT_OK,,,1615989491.90129,1615989491.8988302,med_stim,2.70355916023254,99.11786275379579,FIX,1615989502.88903,1615989502.8844302,1615989505.58799,5,2,3,high_cue,1615989758.91535,1615989758.91324,398.838037252426,2,1615989360.07759,med_stim,pain,1615989360.0752,3,6,41
1615989514.97409,0.8864111900329591,1615989514.97227,1615989519.8926198,7.967911005020139,1615989519.89077,1615989536.87278,7.3949146270752,1615989536.86377,1615989506.92292,7.04027199745178,1615989506.91927,0.0589489936828613,1615989513.9733698,h031.png,1615989513.9719,high_cue,1.96760892868042,109.246031801488,FIX,1615989515.87333,1615989515.8726,1615989517.84021,0,0,0,,,,0,0,Command Recieved: TRIGGER_AND_Response: RESULT_OK,,,1615989527.91945,1615989527.9184802,high_stim,2.33816170692444,80.6144817399569,FIX,1615989544.28454,1615989544.2832,1615989546.62136,6,2,3,high_cue,1615989758.91535,1615989758.91324,398.838037252426,2,1615989360.07759,high_stim,pain,1615989360.0752,3,6,42
1615989555.2730699,1.78804898262024,1615989555.2706301,1615989561.09155,3.1692121028900098,1615989561.08947,1615989573.27876,0.9813334941864009,1615989573.27735,1615989548.32038,5.94147801399231,1615989548.3180401,0.0292270183563232,1615989554.27296,h028.png,1615989554.2702599,high_cue,2.73448061943054,100.784297867563,FIX,1615989557.07203,1615989557.0713,1615989559.8057802,0,0,0,,,,0,0,Command Recieved: TRIGGER_AND_Response: RESULT_OK,,,1615989564.28993,1615989564.28863,med_stim,3.06805062294006,80.9914962579748,FIX,1615989574.27861,1615989574.27772,1615989577.34577,5,2,3,high_cue,1615989758.91535,1615989758.91324,398.838037252426,2,1615989360.07759,med_stim,pain,1615989360.0752,3,6,43
1615989580.2728,1.8953955173492398,1615989580.2632802,1615989586.2009199,6.35984921455383,1615989586.1988301,1615989601.57305,1.1874499320983898,1615989601.5712302,1615989578.3062,0.9636332988739009,1615989578.29588,0.0389049053192139,1615989579.28196,h001.png,1615989579.27958,high_cue,1.99069547653198,76.7462843735046,FIX,1615989582.1819198,1615989582.18067,1615989584.17136,0,0,0,,,,0,0,Command Recieved: TRIGGER_AND_Response: RESULT_OK,,,1615989592.59921,1615989592.59818,low_stim,2.90123796463013,60.04986346207271,FIX,1615989602.7724302,1615989602.77168,1615989605.67291,4,2,3,high_cue,1615989758.91535,1615989758.91324,398.838037252426,2,1615989360.07759,low_stim,pain,1615989360.0752,3,6,44
1615989612.47699,1.3833825588226298,1615989612.4753,1615989617.8956301,6.86469626426697,1615989617.89398,1615989633.77296,7.09210920333862,1615989633.7665699,1615989606.80633,4.66970348358154,1615989606.78984,0.0563809871673584,1615989611.4763,h043.png,1615989611.47492,high_cue,2.2509937286377,58.559451870534105,FIX,1615989613.87705,1615989613.87582,1615989616.12681,0,0,0,,,,0,0,Command Recieved: TRIGGER_AND_Response: RESULT_OK,,,1615989624.81679,1615989624.81566,low_stim,2.63550090789795,23.168387153497502,FIX,1615989640.8726,1615989640.86922,1615989643.50472,4,2,3,high_cue,1615989758.91535,1615989758.91324,398.838037252426,2,1615989360.07759,low_stim,pain,1615989360.0752,3,6,45
1615989646.87295,2.18722319602966,1615989646.87146,1615989653.09197,2.9682366847991903,1615989653.09044,1615989665.08002,6.28043246269226,1615989665.07825,1615989644.88932,0.9722237586975101,1615989644.8873801,0.0398910045623779,1615989645.87295,h007.png,1615989645.8710802,high_cue,2.7511584758758505,75.38909396177459,FIX,1615989649.07303,1615989649.0722802,1615989651.82344,0,0,0,,,,0,0,Command Recieved: TRIGGER_AND_Response: RESULT_OK,,,1615989656.10002,1615989656.0990698,high_stim,1.80088591575623,96.4722703029031,FIX,1615989671.3812,1615989671.3806,1615989673.1814802,6,2,3,high_cue,1615989758.91535,1615989758.91324,398.838037252426,2,1615989360.07759,high_stim,pain,1615989360.0752,3,6,46
1615989687.27295,0.888823509216309,1615989687.26986,1615989692.1898,8.27032232284546,1615989692.18836,1615989709.47994,3.88054275512695,1615989709.47814,1615989675.4060302,10.8607702255249,1615989675.3987598,0.0311839580535889,1615989686.27332,l027.png,1615989686.26948,low_cue,1.88446569442749,29.2328174575243,FIX,1615989688.17203,1615989688.17019,1615989690.0546598,0,0,0,,,,0,0,Command Recieved: TRIGGER_AND_Response: RESULT_OK,,,1615989700.49108,1615989700.49034,med_stim,1.45079255104065,49.723111789790295,FIX,1615989713.3809,1615989713.37959,1615989714.83039,2,2,3,low_cue,1615989758.91535,1615989758.91324,398.838037252426,2,1615989360.07759,med_stim,pain,1615989360.0752,3,6,47
1615989727.4728901,1.7905011177063,1615989727.4681802,1615989733.2896,0.571662187576294,1615989733.28702,1615989742.87582,11.984753131866501,1615989742.87393,1615989717.40629,9.061930179595949,1615989717.39776,0.0412130355834961,1615989726.47265,l029.png,1615989726.46781,low_cue,1.36916613578796,27.081215406842798,FIX,1615989729.27231,1615989729.26885,1615989730.63802,0,0,0,,,,0,0,Command Recieved: TRIGGER_AND_Response: RESULT_OK,,,1615989733.9014099,1615989733.90045,high_stim,1.6007757186889602,61.574007756909,FIX,1615989754.8795302,1615989754.8784,1615989756.47918,3,2,3,low_cue,1615989758.91535,1615989758.91324,398.838037252426,2,1615989360.07759,high_stim,pain,1615989360.0752,3,6,48
1614784867.32806,2.2912142276763903,1614784867.3158,1614784873.65261,4.35551738739014,1614784873.6515,1614784887.02876,1.6838662624359098,1614784887.02315,1614784863.41594,2.89324998855591,1614784863.41435,0.0528068542480469,1614784866.32825,l018.png,1614784866.3154302,low_cue,1.4841609001159701,91.62992788538419,FIX,1614784869.63348,1614784869.63333,1614784871.11749,0,0,0,,,,0,0,Command Recieved: TRIGGER_AND_Response: RESULT_OK,,,1614784878.06815,1614784878.06756,med_stim,1.76939630508423,159.390307062468,FIX,1614784888.72665,1614784888.7237802,1614784890.49318,2,1,3,low_cue,1614785259.74667,1614785259.74548,399.106794595718,4,1614784860.63931,med_stim,pain,1614784860.63868,1,6,49
1614784896.61138,1.69695615768433,1614784896.61006,1614784902.34624,0.961485862731934,1614784902.34553,1614784912.32774,6.4910991191864005,1614784912.3159099,1614784892.74373,2.8651647567749,1614784892.74195,0.038736104965209996,1614784895.6273699,h017.png,1614784895.62636,high_cue,1.86746883392334,91.6233325250905,FIX,1614784898.32757,1614784898.32737,1614784900.1948302,0,0,0,,,,0,0,Command Recieved: TRIGGER_AND_Response: RESULT_OK,,,1614784903.34734,1614784903.34663,low_stim,2.30829763412476,86.46770541610908,FIX,1614784918.82681,1614784918.81834,1614784921.12664,4,1,3,high_cue,1614785259.74667,1614785259.74548,399.106794595718,4,1614784860.63931,low_stim,pain,1614784860.63868,1,6,50
1614784924.32157,2.18662261962891,1614784924.32039,1614784930.54402,6.46763682365417,1614784930.53938,1614784946.02773,6.1952002048492405,1614784946.01181,1614784922.84364,0.470610618591309,1614784922.83651,0.0528109073638916,1614784923.3283699,l023.png,1614784923.32002,low_cue,2.02200269699097,94.4525716313657,FIX,1614784926.5268,1614784926.52121,1614784928.5432198,0,0,0,,,,0,0,Command Recieved: TRIGGER_AND_Response: RESULT_OK,,,1614784937.0606,1614784937.06034,high_stim,2.33433651924133,129.139723018529,FIX,1614784952.22668,1614784952.2141302,1614784954.54846,3,1,3,low_cue,1614785259.74667,1614785259.74548,399.106794595718,4,1614784860.63931,high_stim,pain,1614784860.63868,1,6,51
1614784957.7174,1.29083490371704,1614784957.71618,1614784963.03614,2.17218351364136,1614784963.03483,1614784974.2276301,1.18468022346497,1614784974.22233,1614784956.24391,0.474827527999878,1614784956.23229,0.0356700420379639,1614784956.72803,h038.png,1614784956.71581,high_cue,1.60996270179749,115.717855557001,FIX,1614784959.02706,1614784959.01666,1614784960.62663,0,0,0,,,,0,0,Command Recieved: TRIGGER_AND_Response: RESULT_OK,,,1614784965.2441301,1614784965.24346,med_stim,1.75382208824158,86.4087409627945,FIX,1614784975.42692,1614784975.42278,1614784977.1766,5,1,3,high_cue,1614785259.74667,1614785259.74548,399.106794595718,4,1614784860.63931,med_stim,pain,1614784860.63868,1,6,52
1614784993.2138698,1.6942651271820102,1614784993.21275,1614784998.9491699,2.65879344940186,1614784998.94822,1614785010.62762,6.18777585029602,1614785010.61924,1614784979.44365,12.766154050827,1614784979.44095,0.0640721321105957,1614784992.2132099,l004.png,1614784992.2123802,low_cue,1.70082068443298,113.62937773065701,FIX,1614784994.93031,1614784994.93006,1614784996.63088,0,0,0,,,,0,0,Command Recieved: TRIGGER_AND_Response: RESULT_OK,,,1614785001.6721,1614785001.6717901,med_stim,2.1716461181640603,46.9525090493996,FIX,1614785016.82684,1614785016.82155,1614785018.9932,2,1,3,low_cue,1614785259.74667,1614785259.74548,399.106794595718,4,1614784860.63931,med_stim,pain,1614784860.63868,1,6,53
1614785025.0256698,1.2824010848999,1614785025.02461,1614785030.34504,9.063750982284551,1614785030.34326,1614785048.42738,0.7903447151184079,1614785048.4166698,1614785020.8436,3.1673970222473105,1614785020.83972,0.0284121036529541,1614785024.02752,l012.png,1614785024.02424,low_cue,1.6181559562683099,91.15036306132971,FIX,1614785026.32655,1614785026.3251,1614785027.94325,0,0,0,,,,0,0,Command Recieved: TRIGGER_AND_Response: RESULT_OK,,,1614785039.43633,1614785039.4360301,high_stim,1.7930841445922898,150.140983835077,FIX,1614785049.22677,1614785049.21697,1614785051.01005,3,1,3,low_cue,1614785259.74667,1614785259.74548,399.106794595718,4,1614784860.63931,high_stim,pain,1614784860.63868,1,6,54
1614785055.0205,0.587881565093994,1614785055.01913,1614785059.63886,2.16949415206909,1614785059.6375198,1614785070.82758,17.6819884777069,1614785070.82503,1614785053.25288,0.755294561386108,1614785053.25181,0.0519320964813232,1614785054.02737,h042.png,1614785054.01876,high_cue,3.29060006141663,107.70042778866699,FIX,1614785055.6270401,1614785055.61936,1614785058.90996,0,0,0,,,,0,0,Command Recieved: TRIGGER_AND_Response: RESULT_OK,,,1614785061.86029,1614785061.85972,high_stim,2.18427467346191,109.637833051069,FIX,1614785088.52709,1614785088.51496,1614785090.6992302,6,1,3,high_cue,1614785259.74667,1614785259.74548,399.106794595718,4,1614784860.63931,high_stim,pain,1614784860.63868,1,6,55
1614785096.01897,0.5892579555511469,1614785096.01776,1614785100.6373599,1.87087106704712,1614785100.63614,1614785111.52743,1.9834778308868402,1614785111.52354,1614785092.54387,2.47398948669434,1614785092.53312,0.0660200119018555,1614785095.02765,l020.png,1614785095.01738,low_cue,2.2253196239471404,81.7704834376051,FIX,1614785096.62665,1614785096.61798,1614785098.8433,0,0,0,,,,0,0,Command Recieved: TRIGGER_AND_Response: RESULT_OK,,,1614785102.57477,1614785102.57394,low_stim,3.96900320053101,52.4873881971436,FIX,1614785113.5271199,1614785113.52428,1614785117.49329,1,1,3,low_cue,1614785259.74667,1614785259.74548,399.106794595718,4,1614784860.63931,low_stim,pain,1614784860.63868,1,6,56
1614785120.72767,0.896717548370361,1614785120.7103,1614785125.64659,9.061543941497801,1614785125.64547,1614785143.7286901,7.888137578964231,1614785143.7188802,1614785118.06074,1.64780616760254,1614785118.05931,0.0426139831542969,1614785119.7278,l019.png,1614785119.7266,low_cue,1.98432993888855,90.9240453527727,FIX,1614785121.62757,1614785121.62731,1614785123.61163,0,0,0,,,,0,0,Command Recieved: TRIGGER_AND_Response: RESULT_OK,,,1614785134.7509902,1614785134.75052,low_stim,1.83814120292664,49.723111789790295,FIX,1614785151.62686,1614785151.62182,1614785153.45996,1,1,3,low_cue,1614785259.74667,1614785259.74548,399.106794595718,4,1614784860.63931,low_stim,pain,1614784860.63868,1,6,57
1614785169.41285,2.19522380828857,1614785169.4117901,1614785175.64835,1.85956382751465,1614785175.64745,1614785186.52743,1.68884420394897,1614785186.5181699,1614785155.64364,12.7671282291412,1614785155.63999,0.0639140605926514,1614785168.42729,h039.png,1614785168.4114199,high_cue,1.53411841392517,79.77783136636391,FIX,1614785171.6298,1614785171.62929,1614785173.1634,0,0,0,,,,0,0,Command Recieved: TRIGGER_AND_Response: RESULT_OK,,,1614785177.57214,1614785177.57163,low_stim,3.32453799247742,60.561510325328506,FIX,1614785188.22686,1614785188.2188098,1614785191.54334,4,1,3,high_cue,1614785259.74667,1614785259.74548,399.106794595718,4,1614784860.63931,low_stim,pain,1614784860.63868,1,6,58
1614785202.32762,0.8829498291015621,1614785202.32407,1614785207.2441401,6.664447784423831,1614785207.24257,1614785222.9278,1.4919354915618899,1614785222.91508,1614785192.24405,9.070151805877689,1614785192.23697,0.0525081157684326,1614785201.32792,h032.png,1614785201.32369,high_cue,2.68552160263062,89.02897806892081,FIX,1614785203.2269402,1614785203.2244,1614785205.90992,0,0,0,,,,0,0,Command Recieved: TRIGGER_AND_Response: RESULT_OK,,,1614785213.9607599,1614785213.96025,med_stim,3.17768740653992,99.23555909316592,FIX,1614785224.42671,1614785224.41564,1614785227.59332,5,1,3,high_cue,1614785259.74667,1614785259.74548,399.106794595718,4,1614784860.63931,med_stim,pain,1614784860.63868,1,6,59
1614785233.12769,2.2881314754486097,1614785233.11888,1614785239.43891,6.4691088199615505,1614785239.43791,1614785254.92746,0.7966725826263431,1614785254.91034,1614785228.44398,3.67330646514893,1614785228.4338,0.0403330326080322,1614785232.12748,h025.png,1614785232.11851,high_cue,2.22372269630432,98.764100827878,FIX,1614785235.4270198,1614785235.41974,1614785237.64346,0,0,0,,,,0,0,Command Recieved: TRIGGER_AND_Response: RESULT_OK,,,1614785245.94894,1614785245.94825,high_stim,2.05090713500977,119.345216173295,FIX,1614785255.72771,1614785255.72731,1614785257.77822,6,1,3,high_cue,1614785259.74667,1614785259.74548,399.106794595718,4,1614784860.63931,high_stim,pain,1614784860.63868,1,6,60
1614783903.16066,0.991362333297729,1614783903.15624,1614783908.19454,4.65615057945251,1614783908.19146,1614783921.86449,2.88438606262207,1614783921.86322,1614783899.46118,2.6931369304657,1614783899.45486,0.0572280883789062,1614783902.1610699,l038.png,1614783902.15587,low_cue,1.8198082447052,30.5702477502442,FIX,1614783904.17646,1614783904.17329,1614783905.9931,0,0,0,,,,0,0,Command Recieved: TRIGGER_AND_Response: RESULT_OK,,,1614783912.92152,1614783912.92115,med_stim,1.6842551231384297,117.85965069524201,FIX,1614783924.7644598,1614783924.7643,1614783926.44856,2,2,3,low_cue,1614784295.4046,1614784295.40252,398.731167793274,2,1614783896.67221,med_stim,pain,1614783896.67135,1,6,61
1614783931.4682,1.2808046340942398,1614783931.4668,1614783936.78696,7.46215629577637,1614783936.78545,1614783953.26114,1.88934469223022,1614783953.25826,1614783928.80059,1.64878439903259,1614783928.79914,0.0719799995422363,1614783930.46855,l048.png,1614783930.4664302,low_cue,2.3677332401275604,75.8523946129983,FIX,1614783932.76753,1614783932.76729,1614783935.13502,0,0,0,,,,0,0,Command Recieved: TRIGGER_AND_Response: RESULT_OK,,,1614783944.32045,1614783944.32009,low_stim,1.9175946712493899,66.4368601352252,FIX,1614783955.15983,1614783955.1589699,1614783957.07657,1,2,3,low_cue,1614784295.4046,1614784295.40252,398.731167793274,2,1614783896.67221,low_stim,pain,1614783896.67135,1,6,62
1614783971.8666,1.2824068069458001,1614783971.8652,1614783977.18493,4.763756275177,1614783977.18385,1614783990.96112,2.09195446968079,1614783990.95565,1614783959.19435,11.670791149139399,1614783959.17713,0.0374209880828857,1614783970.86606,l015.png,1614783970.86483,low_cue,2.01753568649292,80.78235579006129,FIX,1614783973.16578,1614783973.16569,1614783975.18322,0,0,0,,,,0,0,Command Recieved: TRIGGER_AND_Response: RESULT_OK,,,1614783981.98626,1614783981.98569,high_stim,2.3534324169158904,135.0,FIX,1614783993.06001,1614783993.05644,1614783995.40987,3,2,3,low_cue,1614784295.4046,1614784295.40252,398.731167793274,2,1614783896.67221,high_stim,pain,1614783896.67135,1,6,63
1614784001.46124,1.7880365848541298,1614784001.45957,1614784007.27976,2.56919980049133,1614784007.27841,1614784018.86795,5.1815466880798295,1614784018.86606,1614783997.09429,3.3566508293151895,1614783997.09127,0.0658280849456787,1614784000.46086,h017.png,1614784000.4592,high_cue,2.13435626029968,102.425942865427,FIX,1614784003.26041,1614784003.26024,1614784005.3946,0,0,0,,,,0,0,Command Recieved: TRIGGER_AND_Response: RESULT_OK,,,1614784009.91423,1614784009.9139,low_stim,2.31775879859924,49.097283605208304,FIX,1614784024.0683599,1614784024.0679998,1614784026.38576,4,2,3,high_cue,1614784295.4046,1614784295.40252,398.731167793274,2,1614783896.67221,low_stim,pain,1614783896.67135,1,6,64
1614784035.9616802,0.691840171813965,1614784035.95577,1614784040.69432,8.95673990249634,1614784040.6908698,1614784058.66658,5.18337035179138,1614784058.6642401,1614784028.1053698,6.845611572265621,1614784028.10284,0.0492990016937256,1614784034.9623,h046.png,1614784034.95539,high_cue,1.5037658214569098,90.2387310330989,FIX,1614784036.67292,1614784036.6727,1614784038.1764698,0,0,0,,,,0,0,Command Recieved: TRIGGER_AND_Response: RESULT_OK,,,1614784049.6995301,1614784049.69801,med_stim,2.61031746864319,84.7831109681655,FIX,1614784063.87645,1614784063.8661802,1614784066.47649,5,2,3,high_cue,1614784295.4046,1614784295.40252,398.731167793274,2,1614783896.67221,med_stim,pain,1614783896.67135,1,6,65
1614784075.76059,0.793664693832397,1614784075.75394,1614784080.5779998,2.5752005577087402,1614784080.5724099,1614784092.1609302,5.187546014785769,1614784092.16006,1614784067.90196,6.8466916084289595,1614784067.90101,0.0600261688232422,1614784074.76089,h052.png,1614784074.7535698,high_cue,1.7055401802063,73.0338518914638,FIX,1614784076.5597801,1614784076.55424,1614784078.2597802,0,0,0,,,,0,0,Command Recieved: TRIGGER_AND_Response: RESULT_OK,,,1614784083.20837,1614784083.2081,high_stim,1.90089678764343,100.140793146113,FIX,1614784097.36211,1614784097.3620002,1614784099.2629,6,2,3,high_cue,1614784295.4046,1614784295.40252,398.731167793274,2,1614783896.67221,high_stim,pain,1614783896.67135,1,6,66
1614784104.36578,1.9829957485199,1614784104.36461,1614784110.38465,3.56408286094666,1614784110.38352,1614784122.96088,9.492772817611689,1614784122.95488,1614784101.39409,1.96754312515259,1614784101.3801599,0.0410258769989014,1614784103.36545,h042.png,1614784103.36424,high_cue,3.45160984992981,113.04677375312001,FIX,1614784106.36582,1614784106.36536,1614784109.8169699,0,0,0,,,,0,0,Command Recieved: TRIGGER_AND_Response: RESULT_OK,,,1614784113.98945,1614784113.9892,low_stim,2.18475079536438,57.970214843003,FIX,1614784132.45981,1614784132.45842,1614784134.6431699,4,2,3,high_cue,1614784295.4046,1614784295.40252,398.731167793274,2,1614783896.67221,low_stim,pain,1614783896.67135,1,6,67
1614784139.66195,1.68649864196777,1614784139.66111,1614784145.38098,2.86769914627075,1614784145.37991,1614784157.26872,0.979931354522705,1614784157.26767,1614784136.47708,2.17110776901245,1614784136.4765902,0.0455279350280762,1614784138.66156,l014.png,1614784138.6607301,low_cue,2.16774487495422,54.057888128617705,FIX,1614784141.3621302,1614784141.36174,1614784143.52949,0,0,0,,,,0,0,Command Recieved: TRIGGER_AND_Response: RESULT_OK,,,1614784148.2945,1614784148.29387,high_stim,2.01766157150269,113.16838715349701,FIX,1614784158.2681699,1614784158.26805,1614784160.2857099,3,2,3,low_cue,1614784295.4046,1614784295.40252,398.731167793274,2,1614783896.67221,high_stim,pain,1614783896.67135,1,6,68
1614784168.4607198,1.99242544174194,1614784168.4551802,1614784174.47718,1.87351632118225,1614784174.47409,1614784185.3626401,11.7861235141754,1614784185.36148,1614784162.29387,5.16149640083313,1614784162.28621,0.0345621109008789,1614784167.46067,h014.png,1614784167.45481,high_cue,2.8205215930938703,92.53968045034071,FIX,1614784170.4600198,1614784170.45592,1614784173.27645,0,0,0,,,,0,0,Command Recieved: TRIGGER_AND_Response: RESULT_OK,,,1614784176.38327,1614784176.38298,high_stim,2.90119600296021,97.6404067610268,FIX,1614784197.16607,1614784197.16589,1614784200.06708,6,2,3,high_cue,1614784295.4046,1614784295.40252,398.731167793274,2,1614783896.67221,high_stim,pain,1614783896.67135,1,6,69
1614784204.16066,1.29578065872192,1614784204.15182,1614784209.48846,3.56045937538147,1614784209.48715,1614784222.06074,1.88910412788391,1614784222.0585,1614784201.19771,1.96364569664001,1614784201.18405,0.0420241355895996,1614784203.16076,l053.png,1614784203.15145,low_cue,2.35749483108521,82.06724168582791,FIX,1614784205.46914,1614784205.46898,1614784207.8264802,0,0,0,,,,0,0,Command Recieved: TRIGGER_AND_Response: RESULT_OK,,,1614784213.0904,1614784213.0901198,med_stim,1.91752505302429,61.1690316876096,FIX,1614784223.95991,1614784223.95921,1614784225.87674,2,2,3,low_cue,1614784295.4046,1614784295.40252,398.731167793274,2,1614783896.67221,med_stim,pain,1614783896.67135,1,6,70
1614784231.16257,1.9857082366943402,1614784231.1619,1614784237.18182,6.266797065734861,1614784237.18081,1614784252.46106,5.39443492889404,1614784252.4531698,1614784227.97822,2.17033195495605,1614784227.97738,0.045184850692749,1614784230.16294,h033.png,1614784230.16152,high_cue,2.73452663421631,53.1761970984455,FIX,1614784233.16302,1614784233.16264,1614784235.8971698,0,0,0,,,,0,0,Command Recieved: TRIGGER_AND_Response: RESULT_OK,,,1614784243.49349,1614784243.49325,med_stim,3.1713056564331095,67.1329437002273,FIX,1614784257.86005,1614784257.85518,1614784261.02649,5,2,3,high_cue,1614784295.4046,1614784295.40252,398.731167793274,2,1614783896.67221,med_stim,pain,1614783896.67135,1,6,71
1614784269.76087,1.98798227310181,1614784269.75962,1614784275.77948,4.56907176971436,1614784275.7785401,1614784289.36816,1.9806702136993402,1614784289.36694,1614784261.87725,6.87435674667358,1614784261.87335,0.0460162162780762,1614784268.7608,l025.png,1614784268.75925,low_cue,1.20069718360901,63.21709519782479,FIX,1614784271.7606401,1614784271.76037,1614784272.9610698,0,0,0,,,,0,0,Command Recieved: TRIGGER_AND_Response: RESULT_OK,,,1614784280.3947198,1614784280.3942,low_stim,2.5177385807037402,45.4869212478131,FIX,1614784291.36796,1614784291.36768,1614784293.8854198,1,2,3,low_cue,1614784295.4046,1614784295.40252,398.731167793274,2,1614783896.67221,low_stim,pain,1614783896.67135,1,6,72
