onset	duration	trial_type	trial_index	cue	stimulusintensity	rating_value	rating_glmslabel	rating_value_fillna	rating_glmslabel_fillna	rating_mouseonset	rating_mousedur	stim_file	correct_response	participant_response	response_accuracy
9.8	0.98	cue	1	high_cue	n/a	n/a	n/a	n/a	n/a	n/a	n/a	h051.png	n/a	n/a	n/a
41.5	0.99	cue	2	high_cue	n/a	n/a	n/a	n/a	n/a	n/a	n/a	h023.png	n/a	n/a	n/a
67.39	0.99	cue	3	low_cue	n/a	n/a	n/a	n/a	n/a	n/a	n/a	l013.png	n/a	n/a	n/a
96.8	0.98	cue	4	high_cue	n/a	n/a	n/a	n/a	n/a	n/a	n/a	h006.png	n/a	n/a	n/a
128.4	0.99	cue	5	high_cue	n/a	n/a	n/a	n/a	n/a	n/a	n/a	h003.png	n/a	n/a	n/a
171.0	0.99	cue	6	low_cue	n/a	n/a	n/a	n/a	n/a	n/a	n/a	l012.png	n/a	n/a	n/a
198.29	0.99	cue	7	low_cue	n/a	n/a	n/a	n/a	n/a	n/a	n/a	l055.png	n/a	n/a	n/a
234.9	0.98	cue	8	low_cue	n/a	n/a	n/a	n/a	n/a	n/a	n/a	l005.png	n/a	n/a	n/a
262.2	0.99	cue	9	high_cue	n/a	n/a	n/a	n/a	n/a	n/a	n/a	h040.png	n/a	n/a	n/a
291.09	0.99	cue	10	low_cue	n/a	n/a	n/a	n/a	n/a	n/a	n/a	l019.png	n/a	n/a	n/a
336.59	0.99	cue	11	high_cue	n/a	n/a	n/a	n/a	n/a	n/a	n/a	h022.png	n/a	n/a	n/a
371.59	1.0	cue	12	low_cue	n/a	n/a	n/a	n/a	n/a	n/a	n/a	l035.png	n/a	n/a	n/a
12.5	1.33	expectrating	1	high_cue	n/a	7.15	Weak	7.15	Weak	0.28	1.05	h051.png	n/a	n/a	n/a
43.0	1.89	expectrating	2	high_cue	n/a	17.41	Moderate	17.41	Moderate	0.33	1.56	h023.png	n/a	n/a	n/a
69.49	2.02	expectrating	3	low_cue	n/a	0.0		0.0		0.05	1.97	l013.png	n/a	n/a	n/a
100.7	2.4	expectrating	4	high_cue	n/a	31.81	Strong	31.81	Strong	0.92	1.48	h006.png	n/a	n/a	n/a
132.3	1.27	expectrating	5	high_cue	n/a	18.51	Moderate	18.51	Moderate	0.05	1.22	h003.png	n/a	n/a	n/a
174.9	2.51	expectrating	6	low_cue	n/a	15.88	Moderate	15.88	Moderate	0.72	1.79	l012.png	n/a	n/a	n/a
199.81	2.37	expectrating	7	low_cue	n/a	2.99	Barely detectable	2.99	Barely detectable	0.15	2.22	l055.png	n/a	n/a	n/a
237.0	1.27	expectrating	8	low_cue	n/a	0.0		0.0		0.35	0.92	l005.png	n/a	n/a	n/a
264.9	1.66	expectrating	9	high_cue	n/a	14.48	Moderate	14.48	Moderate	0.4	1.26	h040.png	n/a	n/a	n/a
293.29	1.27	expectrating	10	low_cue	n/a	2.09	Barely detectable	2.09	Barely detectable	0.05	1.22	l019.png	n/a	n/a	n/a
338.29	2.33	expectrating	11	high_cue	n/a	22.14	Moderate	22.14	Moderate	0.1	2.23	h022.png	n/a	n/a	n/a
373.4	1.73	expectrating	12	low_cue	n/a	6.95	Weak	6.95	Weak	0.33	1.4	l035.png	n/a	n/a	n/a
24.21	6.99	stimulus	1	high_cue	med_stim	n/a	n/a	n/a	n/a	n/a	n/a	14_100.jpg	same	same	True
51.1	7.0	stimulus	2	high_cue	high_stim	n/a	n/a	n/a	n/a	n/a	n/a	28_150.jpg	same	same	True
77.69	7.0	stimulus	3	low_cue	high_stim	n/a	n/a	n/a	n/a	n/a	n/a	28_150_R.jpg	diff	diff	True
110.91	6.99	stimulus	4	high_cue	low_stim	n/a	n/a	n/a	n/a	n/a	n/a	44_50_R.jpg	diff	diff	True
147.0	7.0	stimulus	5	high_cue	med_stim	n/a	n/a	n/a	n/a	n/a	n/a	27_100.jpg	same	same	True
181.8	7.0	stimulus	6	low_cue	low_stim	n/a	n/a	n/a	n/a	n/a	n/a	22_50_R.jpg	diff	diff	True
210.09	7.0	stimulus	7	low_cue	med_stim	n/a	n/a	n/a	n/a	n/a	n/a	27_100_R.jpg	diff	diff	True
246.29	7.0	stimulus	8	low_cue	med_stim	n/a	n/a	n/a	n/a	n/a	n/a	28_100_R.jpg	diff	diff	True
274.2	7.0	stimulus	9	high_cue	high_stim	n/a	n/a	n/a	n/a	n/a	n/a	26_150.jpg	same	same	True
308.0	7.0	stimulus	10	low_cue	low_stim	n/a	n/a	n/a	n/a	n/a	n/a	27_50_R.jpg	diff	diff	True
354.0	7.0	stimulus	11	high_cue	low_stim	n/a	n/a	n/a	n/a	n/a	n/a	7_50_R.jpg	diff	diff	True
380.29	7.0	stimulus	12	low_cue	high_stim	n/a	n/a	n/a	n/a	n/a	n/a	19_150.jpg	same	same	True
32.99	1.93	outcomerating	1	high_cue	med_stim	56.18	Strong	56.18	Strong	0.38	1.54	task-cognitive_scale.png	n/a	n/a	n/a
59.5	3.18	outcomerating	2	high_cue	high_stim	21.5	Moderate	21.5	Moderate	0.43	2.75	task-cognitive_scale.png	n/a	n/a	n/a
87.5	2.24	outcomerating	3	low_cue	high_stim	27.08	Moderate	27.08	Moderate	0.43	1.81	task-cognitive_scale.png	n/a	n/a	n/a
119.31		outcomerating	4	high_cue	low_stim			33.69	Strong	1.05	2.87	task-cognitive_scale.png	n/a	n/a	n/a
156.81	3.08	outcomerating	5	high_cue	med_stim	22.23	Moderate	22.23	Moderate	0.45	2.63	task-cognitive_scale.png	n/a	n/a	n/a
191.7	1.68	outcomerating	6	low_cue	low_stim	30.69	Strong	30.69	Strong	0.73	0.95	task-cognitive_scale.png	n/a	n/a	n/a
228.9	2.74	outcomerating	7	low_cue	med_stim	11.08	Moderate	11.08	Moderate	1.0	1.74	task-cognitive_scale.png	n/a	n/a	n/a
256.19	2.62	outcomerating	8	low_cue	med_stim	2.07	Barely detectable	2.07	Barely detectable	1.47	1.15	task-cognitive_scale.png	n/a	n/a	n/a
285.8	2.12	outcomerating	9	high_cue	high_stim	29.1	Strong	29.1	Strong	0.57	1.55	task-cognitive_scale.png	n/a	n/a	n/a
323.0	3.68	outcomerating	10	low_cue	low_stim	14.87	Moderate	14.87	Moderate	0.9	2.78	task-cognitive_scale.png	n/a	n/a	n/a
367.1	1.63	outcomerating	11	high_cue	low_stim	19.39	Moderate	19.39	Moderate	0.7	0.93	task-cognitive_scale.png	n/a	n/a	n/a
394.8	2.57	outcomerating	12	low_cue	high_stim	18.43	Moderate	18.43	Moderate	0.42	2.16	task-cognitive_scale.png	n/a	n/a	n/a
