onset	duration	trial_type	trial_index	cue	stimulusintensity	rating_value	rating_glmslabel	rating_value_fillna	rating_glmslabel_fillna	rating_mouseonset	rating_mousedur	stim_file	onset_ttl1	onset_ttl2	onset_ttl3	onset_ttl4	stimulus_delivery_success
4.99	1.0	cue	1	high_cue	n/a	n/a	n/a	n/a	n/a	n/a	n/a	h045.png	n/a	n/a	n/a	n/a	n/a
39.59	1.0	cue	2	high_cue	n/a	n/a	n/a	n/a	n/a	n/a	n/a	h035.png	n/a	n/a	n/a	n/a	n/a
72.48	1.0	cue	3	high_cue	n/a	n/a	n/a	n/a	n/a	n/a	n/a	h052.png	n/a	n/a	n/a	n/a	n/a
105.3	0.98	cue	4	low_cue	n/a	n/a	n/a	n/a	n/a	n/a	n/a	l046.png	n/a	n/a	n/a	n/a	n/a
129.39	1.0	cue	5	high_cue	n/a	n/a	n/a	n/a	n/a	n/a	n/a	h007.png	n/a	n/a	n/a	n/a	n/a
167.89	1.0	cue	6	low_cue	n/a	n/a	n/a	n/a	n/a	n/a	n/a	l016.png	n/a	n/a	n/a	n/a	n/a
200.48	1.0	cue	7	high_cue	n/a	n/a	n/a	n/a	n/a	n/a	n/a	h039.png	n/a	n/a	n/a	n/a	n/a
237.0	0.98	cue	8	high_cue	n/a	n/a	n/a	n/a	n/a	n/a	n/a	h046.png	n/a	n/a	n/a	n/a	n/a
268.49	1.0	cue	9	low_cue	n/a	n/a	n/a	n/a	n/a	n/a	n/a	l041.png	n/a	n/a	n/a	n/a	n/a
296.38	1.0	cue	10	low_cue	n/a	n/a	n/a	n/a	n/a	n/a	n/a	l021.png	n/a	n/a	n/a	n/a	n/a
330.68	1.0	cue	11	low_cue	n/a	n/a	n/a	n/a	n/a	n/a	n/a	l024.png	n/a	n/a	n/a	n/a	n/a
372.0	0.98	cue	12	low_cue	n/a	n/a	n/a	n/a	n/a	n/a	n/a	l049.png	n/a	n/a	n/a	n/a	n/a
7.21	3.21	expectrating	1	high_cue	n/a	77.47	Very Strong	77.47	Very Strong	0.28	2.92	h045.png	n/a	n/a	n/a	n/a	n/a
42.79	2.26	expectrating	2	high_cue	n/a	78.19	Very Strong	78.19	Very Strong	0.4	1.86	h035.png	n/a	n/a	n/a	n/a	n/a
74.48	2.33	expectrating	3	high_cue	n/a	74.4	Very Strong	74.4	Very Strong	0.7	1.63	h052.png	n/a	n/a	n/a	n/a	n/a
107.3		expectrating	4	low_cue	n/a			69.39	Very Strong	0.35	3.32	l046.png	n/a	n/a	n/a	n/a	n/a
133.29	1.84	expectrating	5	high_cue	n/a	77.7	Very Strong	77.7	Very Strong	0.42	1.42	h007.png	n/a	n/a	n/a	n/a	n/a
171.09	2.96	expectrating	6	low_cue	n/a	64.26	Very Strong	64.26	Very Strong	0.42	2.54	l016.png	n/a	n/a	n/a	n/a	n/a
202.5	2.0	expectrating	7	high_cue	n/a	84.47	Very Strong	84.47	Very Strong	0.5	1.5	h039.png	n/a	n/a	n/a	n/a	n/a
240.2	3.94	expectrating	8	high_cue	n/a	86.55	Very Strong	86.55	Very Strong	0.53	3.4	h046.png	n/a	n/a	n/a	n/a	n/a
271.69	2.42	expectrating	9	low_cue	n/a	63.23	Strong	63.23	Strong	0.42	2.01	l041.png	n/a	n/a	n/a	n/a	n/a
298.29	2.92	expectrating	10	low_cue	n/a	65.61	Very Strong	65.61	Very Strong	0.48	2.43	l021.png	n/a	n/a	n/a	n/a	n/a
332.4	2.45	expectrating	11	low_cue	n/a	65.59	Very Strong	65.59	Very Strong	0.53	1.92	l024.png	n/a	n/a	n/a	n/a	n/a
373.6		expectrating	12	low_cue	n/a			56.24	Strong	2.8	3.73	l049.png	n/a	n/a	n/a	n/a	n/a
17.23	29.14	stimulus	1	high_cue	low_stim	n/a	n/a	n/a	n/a	n/a	n/a	48c	17.23	20.73	25.73	29.13	success
48.53	60.44	stimulus	2	high_cue	low_stim	n/a	n/a	n/a	n/a	n/a	n/a	48c	48.53	52.03	57.03	60.43	success
80.24	92.6	stimulus	3	high_cue	med_stim	n/a	n/a	n/a	n/a	n/a	n/a	49c	80.24	84.0	89.0	92.61	success
113.03	125.4	stimulus	4	low_cue	med_stim	n/a	n/a	n/a	n/a	n/a	n/a	49c	113.03	116.79	121.79	125.4	success
148.93	161.75	stimulus	5	high_cue	high_stim	n/a	n/a	n/a	n/a	n/a	n/a	50c	148.93	152.94	157.94	161.75	success
180.34	193.16	stimulus	6	low_cue	high_stim	n/a	n/a	n/a	n/a	n/a	n/a	50c	180.34	184.35	189.35	193.16	success
212.95	225.77	stimulus	7	high_cue	high_stim	n/a	n/a	n/a	n/a	n/a	n/a	50c	212.95	216.96	221.96	225.77	success
249.41	261.77	stimulus	8	high_cue	med_stim	n/a	n/a	n/a	n/a	n/a	n/a	49c	249.41	253.17	258.17	261.78	success
278.74	290.64	stimulus	9	low_cue	low_stim	n/a	n/a	n/a	n/a	n/a	n/a	48c	278.74	282.24	287.24	290.64	success
306.74	319.56	stimulus	10	low_cue	high_stim	n/a	n/a	n/a	n/a	n/a	n/a	50c	306.74	310.75	315.75	319.56	success
340.03	351.93	stimulus	11	low_cue	low_stim	n/a	n/a	n/a	n/a	n/a	n/a	48c	340.03	343.53	348.53	351.93	success
381.24	393.61	stimulus	12	low_cue	med_stim	n/a	n/a	n/a	n/a	n/a	n/a	49c	381.24	385.0	390.0	393.61	success
27.4	2.95	outcomerating	1	high_cue	low_stim	91.61	Very Strong	91.61	Very Strong	0.82	2.13	task-pain_scale.png	n/a	n/a	n/a	n/a	success
61.8	2.3	outcomerating	2	high_cue	low_stim	60.26	Strong	60.26	Strong	0.63	1.67	task-pain_scale.png	n/a	n/a	n/a	n/a	success
93.09	2.14	outcomerating	3	high_cue	med_stim	85.18	Very Strong	85.18	Very Strong	0.57	1.57	task-pain_scale.png	n/a	n/a	n/a	n/a	success
123.2	2.43	outcomerating	4	low_cue	med_stim	66.65	Very Strong	66.65	Very Strong	0.88	1.55	task-pain_scale.png	n/a	n/a	n/a	n/a	success
163.08	3.0	outcomerating	5	high_cue	high_stim	79.78	Very Strong	79.78	Very Strong	0.8	2.2	task-pain_scale.png	n/a	n/a	n/a	n/a	success
191.1	2.39	outcomerating	6	low_cue	high_stim	78.19	Very Strong	78.19	Very Strong	0.62	1.77	task-pain_scale.png	n/a	n/a	n/a	n/a	success
226.69	2.97	outcomerating	7	high_cue	high_stim	80.99	Very Strong	80.99	Very Strong	0.57	2.41	task-pain_scale.png	n/a	n/a	n/a	n/a	success
262.69	3.51	outcomerating	8	high_cue	med_stim	80.5	Very Strong	80.5	Very Strong	0.48	3.03	task-pain_scale.png	n/a	n/a	n/a	n/a	success
288.9	2.35	outcomerating	9	low_cue	low_stim	54.49	Strong	54.49	Strong	0.62	1.73	task-pain_scale.png	n/a	n/a	n/a	n/a	success
319.99	1.74	outcomerating	10	low_cue	high_stim	73.23	Very Strong	73.23	Very Strong	0.68	1.06	task-pain_scale.png	n/a	n/a	n/a	n/a	success
365.79	3.1	outcomerating	11	low_cue	low_stim	48.08	Strong	48.08	Strong	0.6	2.5	task-pain_scale.png	n/a	n/a	n/a	n/a	success
395.19	2.43	outcomerating	12	low_cue	med_stim	67.23	Very Strong	67.23	Very Strong	0.62	1.81	task-pain_scale.png	n/a	n/a	n/a	n/a	success
