onset	duration	trial_type	trial_index	cue	stimulusintensity	rating_value	rating_glmslabel	rating_value_fillna	rating_glmslabel_fillna	rating_mouseonset	rating_mousedur	stim_file
10.58	0.99	cue	1	low_cue	n/a	n/a	n/a	n/a	n/a	n/a	n/a	l009.png
35.69	0.98	cue	2	low_cue	n/a	n/a	n/a	n/a	n/a	n/a	n/a	l046.png
61.29	0.99	cue	3	low_cue	n/a	n/a	n/a	n/a	n/a	n/a	n/a	l033.png
91.28	0.99	cue	4	low_cue	n/a	n/a	n/a	n/a	n/a	n/a	n/a	l027.png
119.99	0.98	cue	5	high_cue	n/a	n/a	n/a	n/a	n/a	n/a	n/a	h051.png
153.89	0.99	cue	6	high_cue	n/a	n/a	n/a	n/a	n/a	n/a	n/a	h045.png
194.19	0.99	cue	7	high_cue	n/a	n/a	n/a	n/a	n/a	n/a	n/a	h041.png
219.2	0.98	cue	8	high_cue	n/a	n/a	n/a	n/a	n/a	n/a	n/a	h014.png
251.39	0.98	cue	9	high_cue	n/a	n/a	n/a	n/a	n/a	n/a	n/a	h043.png
285.79	0.99	cue	10	high_cue	n/a	n/a	n/a	n/a	n/a	n/a	n/a	h013.png
326.19	0.99	cue	11	low_cue	n/a	n/a	n/a	n/a	n/a	n/a	n/a	l040.png
366.38	0.99	cue	12	low_cue	n/a	n/a	n/a	n/a	n/a	n/a	n/a	l051.png
12.3	1.62	expectrating	1	low_cue	n/a	26.36	Moderate	26.36	Moderate	0.3	1.32	l009.png
37.99	1.32	expectrating	2	low_cue	n/a	23.77	Moderate	23.77	Moderate	0.42	0.9	l046.png
64.19	1.85	expectrating	3	low_cue	n/a	6.9	Weak	6.9	Weak	0.38	1.47	l033.png
93.7	2.08	expectrating	4	low_cue	n/a	1.39	Barely detectable	1.39	Barely detectable	1.18	0.9	l027.png
122.89	1.62	expectrating	5	high_cue	n/a	39.95	Strong	39.95	Strong	0.33	1.29	h051.png
155.79	2.29	expectrating	6	high_cue	n/a	13.98	Moderate	13.98	Moderate	0.28	2.01	h045.png
196.99	2.0	expectrating	7	high_cue	n/a	23.17	Moderate	23.17	Moderate	0.43	1.57	h041.png
222.1	1.82	expectrating	8	high_cue	n/a	14.15	Moderate	14.15	Moderate	0.72	1.1	h014.png
253.79	1.4	expectrating	9	high_cue	n/a	10.18	Moderate	10.18	Moderate	0.43	0.97	h043.png
288.99	2.57	expectrating	10	high_cue	n/a	17.34	Moderate	17.34	Moderate	0.37	2.2	h013.png
328.09	2.9	expectrating	11	low_cue	n/a	16.59	Moderate	16.59	Moderate	0.48	2.42	l040.png
369.18	2.37	expectrating	12	low_cue	n/a	11.36	Moderate	11.36	Moderate	0.47	1.9	l051.png
23.08	7.01	stimulus	1	low_cue	low_stim	n/a	n/a	n/a	n/a	n/a	n/a	jl047t1aaunaff_L.mp4
45.78	7.01	stimulus	2	low_cue	med_stim	n/a	n/a	n/a	n/a	n/a	n/a	bn080t1aeaff_M.mp4
74.18	7.01	stimulus	3	low_cue	low_stim	n/a	n/a	n/a	n/a	n/a	n/a	jh043t2aaunaff_L.mp4
101.78	7.01	stimulus	4	low_cue	high_stim	n/a	n/a	n/a	n/a	n/a	n/a	mg066t1aaaff_H.mp4
133.78	7.0	stimulus	5	high_cue	med_stim	n/a	n/a	n/a	n/a	n/a	n/a	ib109t1afaff_M.mp4
169.78	7.0	stimulus	6	high_cue	high_stim	n/a	n/a	n/a	n/a	n/a	n/a	jh043t2aeaff_H.mp4
206.18	7.02	stimulus	7	high_cue	med_stim	n/a	n/a	n/a	n/a	n/a	n/a	vw121t1aiaff_M.mp4
234.48	7.01	stimulus	8	high_cue	low_stim	n/a	n/a	n/a	n/a	n/a	n/a	bg096t2afunaff_L.mp4
266.68	7.0	stimulus	9	high_cue	low_stim	n/a	n/a	n/a	n/a	n/a	n/a	bn080t1afunaff_L.mp4
297.98	7.02	stimulus	10	high_cue	high_stim	n/a	n/a	n/a	n/a	n/a	n/a	bn080t1afaff_H.mp4
342.38	7.02	stimulus	11	low_cue	med_stim	n/a	n/a	n/a	n/a	n/a	n/a	mg066t2aaunaff_M.mp4
375.78	7.01	stimulus	12	low_cue	high_stim	n/a	n/a	n/a	n/a	n/a	n/a	ib109t1aiaff_H.mp4
31.09	2.04	outcomerating	1	low_cue	low_stim	15.11	Moderate	15.11	Moderate	0.63	1.4	task-vicarious_scale.png
56.3	1.52	outcomerating	2	low_cue	med_stim	0.0		0.0		0.52	1.0	task-vicarious_scale.png
86.3	2.35	outcomerating	3	low_cue	low_stim	4.63	Weak	4.63	Weak	0.58	1.77	task-vicarious_scale.png
112.29	1.74	outcomerating	4	low_cue	high_stim	12.75	Moderate	12.75	Moderate	0.55	1.19	task-vicarious_scale.png
142.8	1.73	outcomerating	5	high_cue	med_stim	9.38	Weak	9.38	Weak	0.37	1.37	task-vicarious_scale.png
184.2	3.85	outcomerating	6	high_cue	high_stim	13.19	Moderate	13.19	Moderate	0.38	3.47	task-vicarious_scale.png
214.19	1.72	outcomerating	7	high_cue	med_stim	10.95	Moderate	10.95	Moderate	0.48	1.24	task-vicarious_scale.png
242.7	1.92	outcomerating	8	high_cue	low_stim	12.08	Moderate	12.08	Moderate	0.37	1.55	task-vicarious_scale.png
280.8	2.38	outcomerating	9	high_cue	low_stim	8.82	Weak	8.82	Weak	0.77	1.62	task-vicarious_scale.png
311.3	2.22	outcomerating	10	high_cue	high_stim	11.08	Moderate	11.08	Moderate	0.43	1.78	task-vicarious_scale.png
353.3	1.47	outcomerating	11	low_cue	med_stim	1.16	Barely detectable	1.16	Barely detectable	0.47	1.0	task-vicarious_scale.png
394.79	2.25	outcomerating	12	low_cue	high_stim	5.76	Weak	5.76	Weak	0.72	1.54	task-vicarious_scale.png
