onset	duration	trial_type	trial_index	cue	stimulusintensity	rating_value	rating_glmslabel	rating_value_fillna	rating_glmslabel_fillna	rating_mouseonset	rating_mousedur	stim_file
9.1	0.98	cue	1	high_cue	n/a	n/a	n/a	n/a	n/a	n/a	n/a	h051.png
45.49	0.98	cue	2	low_cue	n/a	n/a	n/a	n/a	n/a	n/a	n/a	l045.png
87.19	0.98	cue	3	high_cue	n/a	n/a	n/a	n/a	n/a	n/a	n/a	h053.png
129.09	0.99	cue	4	high_cue	n/a	n/a	n/a	n/a	n/a	n/a	n/a	h001.png
155.38	0.99	cue	5	low_cue	n/a	n/a	n/a	n/a	n/a	n/a	n/a	l040.png
189.58	1.0	cue	6	low_cue	n/a	n/a	n/a	n/a	n/a	n/a	n/a	l028.png
214.09	0.99	cue	7	low_cue	n/a	n/a	n/a	n/a	n/a	n/a	n/a	l037.png
238.98	0.99	cue	8	low_cue	n/a	n/a	n/a	n/a	n/a	n/a	n/a	l012.png
267.99	0.98	cue	9	low_cue	n/a	n/a	n/a	n/a	n/a	n/a	n/a	l051.png
304.99	0.99	cue	10	high_cue	n/a	n/a	n/a	n/a	n/a	n/a	n/a	h026.png
339.19	0.99	cue	11	high_cue	n/a	n/a	n/a	n/a	n/a	n/a	n/a	h015.png
370.08	1.0	cue	12	high_cue	n/a	n/a	n/a	n/a	n/a	n/a	n/a	h007.png
10.7	2.93	expectrating	1	high_cue	n/a	56.58	Strong	56.58	Strong	0.48	2.45	h051.png
47.39	3.22	expectrating	2	low_cue	n/a	1.39	Barely detectable	1.39	Barely detectable	0.17	3.05	l045.png
89.49	3.49	expectrating	3	high_cue	n/a	30.81	Strong	30.81	Strong	1.95	1.54	h053.png
130.99	2.21	expectrating	4	high_cue	n/a	27.09	Moderate	27.09	Moderate	0.57	1.64	h001.png
158.6	2.52	expectrating	5	low_cue	n/a	9.5	Weak	9.5	Weak	1.13	1.38	l040.png
192.3	2.38	expectrating	6	low_cue	n/a	2.99	Barely detectable	2.99	Barely detectable	0.57	1.82	l028.png
216.39	2.12	expectrating	7	low_cue	n/a	6.21	Weak	6.21	Weak	0.37	1.76	l037.png
241.4	2.35	expectrating	8	low_cue	n/a	1.39	Barely detectable	1.39	Barely detectable	0.58	1.77	l012.png
271.19	1.94	expectrating	9	low_cue	n/a	12.48	Moderate	12.48	Moderate	0.37	1.57	l051.png
308.09	3.41	expectrating	10	high_cue	n/a	36.18	Strong	36.18	Strong	0.38	3.02	h026.png
341.89	2.65	expectrating	11	high_cue	n/a	31.36	Strong	31.36	Strong	0.88	1.77	h015.png
372.8	2.73	expectrating	12	high_cue	n/a	26.46	Moderate	26.46	Moderate	1.07	1.67	h007.png
22.58	7.01	stimulus	1	high_cue	high_stim	n/a	n/a	n/a	n/a	n/a	n/a	nm106t1afaff_H.mp4
60.68	7.01	stimulus	2	low_cue	low_stim	n/a	n/a	n/a	n/a	n/a	n/a	nm106t1aaunaff_L.mp4
104.48	7.01	stimulus	3	high_cue	low_stim	n/a	n/a	n/a	n/a	n/a	n/a	bm049t1afaff_L.mp4
138.08	7.0	stimulus	4	high_cue	med_stim	n/a	n/a	n/a	n/a	n/a	n/a	mg101t2aeunaff_M.mp4
170.48	7.01	stimulus	5	low_cue	low_stim	n/a	n/a	n/a	n/a	n/a	n/a	th108t1aaunaff_L.mp4
199.68	7.01	stimulus	6	low_cue	high_stim	n/a	n/a	n/a	n/a	n/a	n/a	bm049t2aeunaff_H.mp4
224.08	7.02	stimulus	7	low_cue	med_stim	n/a	n/a	n/a	n/a	n/a	n/a	bm049t2aeaff_M.mp4
248.48	7.01	stimulus	8	low_cue	med_stim	n/a	n/a	n/a	n/a	n/a	n/a	tv095t2afaff_M.mp4
281.68	7.01	stimulus	9	low_cue	high_stim	n/a	n/a	n/a	n/a	n/a	n/a	tv095t1afaff_H.mp4
317.08	7.0	stimulus	10	high_cue	low_stim	n/a	n/a	n/a	n/a	n/a	n/a	tv095t2aeunaff_L.mp4
352.38	7.01	stimulus	11	high_cue	med_stim	n/a	n/a	n/a	n/a	n/a	n/a	hs107t2aaaff_M.mp4
387.48	7.01	stimulus	12	high_cue	high_stim	n/a	n/a	n/a	n/a	n/a	n/a	gf097t2aaunaff_H.mp4
32.6	2.57	outcomerating	1	high_cue	high_stim	25.73	Moderate	25.73	Moderate	0.4	2.17	task-vicarious_scale.png
75.5	2.55	outcomerating	2	low_cue	low_stim	0.0		0.0		0.45	2.1	task-vicarious_scale.png
118.4	3.03	outcomerating	3	high_cue	low_stim	11.36	Moderate	11.36	Moderate	0.75	2.28	task-vicarious_scale.png
148.6	2.93	outcomerating	4	high_cue	med_stim	12.26	Moderate	12.26	Moderate	0.57	2.37	task-vicarious_scale.png
184.29	2.72	outcomerating	5	low_cue	low_stim	10.45	Moderate	10.45	Moderate	0.53	2.19	task-vicarious_scale.png
208.2	3.52	outcomerating	6	low_cue	high_stim	3.22	Weak	3.22	Weak	0.48	3.03	task-vicarious_scale.png
232.7	2.89	outcomerating	7	low_cue	med_stim	4.59	Weak	4.59	Weak	0.67	2.22	task-vicarious_scale.png
261.69	3.28	outcomerating	8	low_cue	med_stim	10.14	Moderate	10.14	Moderate	0.67	2.61	task-vicarious_scale.png
294.9	2.9	outcomerating	9	low_cue	high_stim	23.89	Moderate	23.89	Moderate	0.75	2.15	task-vicarious_scale.png
328.6	2.9	outcomerating	10	high_cue	low_stim	14.43	Moderate	14.43	Moderate	0.1	2.8	task-vicarious_scale.png
364.9	2.7	outcomerating	11	high_cue	med_stim	36.78	Strong	36.78	Strong	0.35	2.35	task-vicarious_scale.png
394.99	3.12	outcomerating	12	high_cue	high_stim	12.3	Moderate	12.3	Moderate	0.78	2.34	task-vicarious_scale.png
