onset	duration	trial_type	trial_index	cue	stimulusintensity	rating_value	rating_glmslabel	rating_value_fillna	rating_glmslabel_fillna	rating_mouseonset	rating_mousedur	stim_file	onset_ttl1	onset_ttl2	onset_ttl3	onset_ttl4	stimulus_delivery_success
3.38	1.0	cue	1	low_cue	n/a	n/a	n/a	n/a	n/a	n/a	n/a	l022.png	n/a	n/a	n/a	n/a	n/a
45.98	1.0	cue	2	high_cue	n/a	n/a	n/a	n/a	n/a	n/a	n/a	h047.png	n/a	n/a	n/a	n/a	n/a
80.69	1.0	cue	3	low_cue	n/a	n/a	n/a	n/a	n/a	n/a	n/a	l014.png	n/a	n/a	n/a	n/a	n/a
110.29	1.0	cue	4	low_cue	n/a	n/a	n/a	n/a	n/a	n/a	n/a	l042.png	n/a	n/a	n/a	n/a	n/a
143.78	1.0	cue	5	high_cue	n/a	n/a	n/a	n/a	n/a	n/a	n/a	h031.png	n/a	n/a	n/a	n/a	n/a
171.29	0.98	cue	6	high_cue	n/a	n/a	n/a	n/a	n/a	n/a	n/a	h003.png	n/a	n/a	n/a	n/a	n/a
201.09	1.0	cue	7	high_cue	n/a	n/a	n/a	n/a	n/a	n/a	n/a	h030.png	n/a	n/a	n/a	n/a	n/a
234.78	1.0	cue	8	low_cue	n/a	n/a	n/a	n/a	n/a	n/a	n/a	l047.png	n/a	n/a	n/a	n/a	n/a
265.09	0.98	cue	9	low_cue	n/a	n/a	n/a	n/a	n/a	n/a	n/a	l051.png	n/a	n/a	n/a	n/a	n/a
295.49	1.0	cue	10	low_cue	n/a	n/a	n/a	n/a	n/a	n/a	n/a	l033.png	n/a	n/a	n/a	n/a	n/a
337.89	1.0	cue	11	high_cue	n/a	n/a	n/a	n/a	n/a	n/a	n/a	h037.png	n/a	n/a	n/a	n/a	n/a
362.58	1.0	cue	12	high_cue	n/a	n/a	n/a	n/a	n/a	n/a	n/a	h001.png	n/a	n/a	n/a	n/a	n/a
6.1	1.92	expectrating	1	low_cue	n/a	8.07	Weak	8.07	Weak	0.33	1.58	l022.png	n/a	n/a	n/a	n/a	n/a
49.1	2.1	expectrating	2	high_cue	n/a	94.86	Very Strong	94.86	Very Strong	0.27	1.83	h047.png	n/a	n/a	n/a	n/a	n/a
83.79	2.13	expectrating	3	low_cue	n/a	10.9	Moderate	10.9	Moderate	0.25	1.88	l014.png	n/a	n/a	n/a	n/a	n/a
111.79	1.49	expectrating	4	low_cue	n/a	11.9	Moderate	11.9	Moderate	0.62	0.87	l042.png	n/a	n/a	n/a	n/a	n/a
146.9	2.87	expectrating	5	high_cue	n/a	114.41	Strongest sensation of any kind	114.41	Strongest sensation of any kind	0.83	2.03	h031.png	n/a	n/a	n/a	n/a	n/a
173.29	3.57	expectrating	6	high_cue	n/a	91.64	Very Strong	91.64	Very Strong	0.15	3.42	h003.png	n/a	n/a	n/a	n/a	n/a
203.09	2.77	expectrating	7	high_cue	n/a	45.65	Strong	45.65	Strong	0.45	2.32	h030.png	n/a	n/a	n/a	n/a	n/a
237.28	1.41	expectrating	8	low_cue	n/a	0.0		0.0		0.38	1.03	l047.png	n/a	n/a	n/a	n/a	n/a
268.2	1.68	expectrating	9	low_cue	n/a	2.61	Barely detectable	2.61	Barely detectable	0.22	1.47	l051.png	n/a	n/a	n/a	n/a	n/a
297.39	1.19	expectrating	10	low_cue	n/a	0.0		0.0		0.22	0.97	l033.png	n/a	n/a	n/a	n/a	n/a
340.59	1.39	expectrating	11	high_cue	n/a	38.62	Strong	38.62	Strong	0.57	0.82	h037.png	n/a	n/a	n/a	n/a	n/a
364.78	2.58	expectrating	12	high_cue	n/a	73.21	Very Strong	73.21	Very Strong	0.6	1.98	h001.png	n/a	n/a	n/a	n/a	n/a
16.54	29.36	stimulus	1	low_cue	high_stim	n/a	n/a	n/a	n/a	n/a	n/a	50c	16.54	20.55	25.55	29.36	success
57.63	70.0	stimulus	2	high_cue	med_stim	n/a	n/a	n/a	n/a	n/a	n/a	49c	57.63	61.39	66.39	70.0	success
88.31	100.22	stimulus	3	low_cue	low_stim	n/a	n/a	n/a	n/a	n/a	n/a	48c	88.31	91.81	96.81	100.21	success
116.63	128.53	stimulus	4	low_cue	low_stim	n/a	n/a	n/a	n/a	n/a	n/a	48c	116.63	120.13	125.13	128.53	success
154.63	166.53	stimulus	5	high_cue	low_stim	n/a	n/a	n/a	n/a	n/a	n/a	48c	154.63	158.13	163.13	166.53	success
177.82	190.18	stimulus	6	high_cue	med_stim	n/a	n/a	n/a	n/a	n/a	n/a	49c	177.82	181.58	186.58	190.19	success
214.13	226.04	stimulus	7	high_cue	low_stim	n/a	n/a	n/a	n/a	n/a	n/a	48c	214.13	217.63	222.63	226.03	success
249.31	262.13	stimulus	8	low_cue	high_stim	n/a	n/a	n/a	n/a	n/a	n/a	50c	249.31	253.32	258.32	262.13	success
277.91	290.28	stimulus	9	low_cue	med_stim	n/a	n/a	n/a	n/a	n/a	n/a	49c	277.91	281.67	286.67	290.28	success
309.11	321.47	stimulus	10	low_cue	med_stim	n/a	n/a	n/a	n/a	n/a	n/a	49c	309.11	312.87	317.87	321.48	success
346.01	358.83	stimulus	11	high_cue	high_stim	n/a	n/a	n/a	n/a	n/a	n/a	50c	346.01	350.02	355.02	358.83	success
376.5	389.33	stimulus	12	high_cue	high_stim	n/a	n/a	n/a	n/a	n/a	n/a	50c	376.5	380.51	385.51	389.32	success
32.59	3.34	outcomerating	1	low_cue	high_stim	48.17	Strong	48.17	Strong	0.87	2.47	task-pain_scale.png	n/a	n/a	n/a	n/a	success
75.99	2.69	outcomerating	2	high_cue	med_stim	76.75	Very Strong	76.75	Very Strong	0.45	2.24	task-pain_scale.png	n/a	n/a	n/a	n/a	success
97.78		outcomerating	3	low_cue	low_stim			20.61	Moderate	0.75	2.3	task-pain_scale.png	n/a	n/a	n/a	n/a	success
134.7	3.7	outcomerating	4	low_cue	low_stim	26.46	Moderate	26.46	Moderate	0.38	3.32	task-pain_scale.png	n/a	n/a	n/a	n/a	success
166.59	1.22	outcomerating	5	high_cue	low_stim	30.12	Strong	30.12	Strong	0.2	1.02	task-pain_scale.png	n/a	n/a	n/a	n/a	success
189.58	3.94	outcomerating	6	high_cue	med_stim	67.13	Very Strong	67.13	Very Strong	0.48	3.46	task-pain_scale.png	n/a	n/a	n/a	n/a	success
226.7	1.78	outcomerating	7	high_cue	low_stim	65.35	Very Strong	65.35	Very Strong	0.7	1.08	task-pain_scale.png	n/a	n/a	n/a	n/a	success
260.39	2.68	outcomerating	8	low_cue	high_stim	74.22	Very Strong	74.22	Very Strong	0.45	2.23	task-pain_scale.png	n/a	n/a	n/a	n/a	success
289.99	2.71	outcomerating	9	low_cue	med_stim	55.99	Strong	55.99	Strong	0.38	2.32	task-pain_scale.png	n/a	n/a	n/a	n/a	success
321.68	2.58	outcomerating	10	low_cue	med_stim	68.37	Very Strong	68.37	Very Strong	0.47	2.12	task-pain_scale.png	n/a	n/a	n/a	n/a	success
355.5		outcomerating	11	high_cue	high_stim			67.66	Very Strong	0.73	3.25	task-pain_scale.png	n/a	n/a	n/a	n/a	success
394.59	2.93	outcomerating	12	high_cue	high_stim	93.15	Very Strong	93.15	Very Strong	1.0	1.93	task-pain_scale.png	n/a	n/a	n/a	n/a	success
