onset	duration	trial_type	trial_index	cue	stimulusintensity	rating_value	rating_glmslabel	rating_value_fillna	rating_glmslabel_fillna	rating_mouseonset	rating_mousedur	stim_file
13.4	0.98	cue	1	low_cue	n/a	n/a	n/a	n/a	n/a	n/a	n/a	l053.png
43.0	0.99	cue	2	low_cue	n/a	n/a	n/a	n/a	n/a	n/a	n/a	l048.png
78.69	0.99	cue	3	high_cue	n/a	n/a	n/a	n/a	n/a	n/a	n/a	h042.png
113.89	1.0	cue	4	low_cue	n/a	n/a	n/a	n/a	n/a	n/a	n/a	l036.png
151.7	0.98	cue	5	high_cue	n/a	n/a	n/a	n/a	n/a	n/a	n/a	h048.png
178.8	0.99	cue	6	low_cue	n/a	n/a	n/a	n/a	n/a	n/a	n/a	l016.png
207.19	0.99	cue	7	low_cue	n/a	n/a	n/a	n/a	n/a	n/a	n/a	l001.png
237.6	0.98	cue	8	high_cue	n/a	n/a	n/a	n/a	n/a	n/a	n/a	h006.png
268.3	0.99	cue	9	high_cue	n/a	n/a	n/a	n/a	n/a	n/a	n/a	h027.png
300.09	0.99	cue	10	high_cue	n/a	n/a	n/a	n/a	n/a	n/a	n/a	h049.png
333.61	0.98	cue	11	high_cue	n/a	n/a	n/a	n/a	n/a	n/a	n/a	h018.png
367.0	0.98	cue	12	low_cue	n/a	n/a	n/a	n/a	n/a	n/a	n/a	l049.png
15.24	1.85	expectrating	1	low_cue	n/a	6.07	Weak	6.07	Weak	0.48	1.37	l053.png
46.0	1.53	expectrating	2	low_cue	n/a	9.54	Weak	9.54	Weak	0.37	1.17	l048.png
81.71	1.95	expectrating	3	high_cue	n/a	103.56	Strongest sensation of any kind	103.56	Strongest sensation of any kind	0.82	1.14	h042.png
115.81	1.46	expectrating	4	low_cue	n/a	20.0	Moderate	20.0	Moderate	0.55	0.91	l036.png
153.4	2.23	expectrating	5	high_cue	n/a	42.31	Strong	42.31	Strong	0.4	1.83	h048.png
181.9	1.37	expectrating	6	low_cue	n/a	5.13	Weak	5.13	Weak	0.05	1.32	l016.png
210.19	1.05	expectrating	7	low_cue	n/a	2.11	Barely detectable	2.11	Barely detectable	0.47	0.59	l001.png
239.3	1.98	expectrating	8	high_cue	n/a	63.54	Strong	63.54	Strong	0.73	1.25	h006.png
271.3	1.48	expectrating	9	high_cue	n/a	73.74	Very Strong	73.74	Very Strong	0.37	1.12	h027.png
302.89	1.62	expectrating	10	high_cue	n/a	57.19	Strong	57.19	Strong	0.58	1.04	h049.png
336.51	2.54	expectrating	11	high_cue	n/a	57.79	Strong	57.79	Strong	0.98	1.56	h018.png
368.9	1.72	expectrating	12	low_cue	n/a	2.76	Barely detectable	2.76	Barely detectable	0.37	1.35	l049.png
25.89	7.0	stimulus	1	low_cue	low_stim	n/a	n/a	n/a	n/a	n/a	n/a	gf097t2aiunaff_L.mp4
56.69	7.02	stimulus	2	low_cue	med_stim	n/a	n/a	n/a	n/a	n/a	n/a	hs107t2aaaff_M.mp4
88.49	7.01	stimulus	3	high_cue	med_stim	n/a	n/a	n/a	n/a	n/a	n/a	bn080t1aeaff_M.mp4
125.19	7.01	stimulus	4	low_cue	high_stim	n/a	n/a	n/a	n/a	n/a	n/a	gf097t2aaunaff_H.mp4
161.89	7.0	stimulus	5	high_cue	med_stim	n/a	n/a	n/a	n/a	n/a	n/a	vw121t1aiaff_M.mp4
190.09	7.02	stimulus	6	low_cue	high_stim	n/a	n/a	n/a	n/a	n/a	n/a	hs107t1afaff_H.mp4
221.49	7.01	stimulus	7	low_cue	low_stim	n/a	n/a	n/a	n/a	n/a	n/a	hs107t2aeunaff_L.mp4
250.19	7.01	stimulus	8	high_cue	high_stim	n/a	n/a	n/a	n/a	n/a	n/a	kz120t2aaaff_H.mp4
279.49	7.02	stimulus	9	high_cue	high_stim	n/a	n/a	n/a	n/a	n/a	n/a	th108t1aeaff_H.mp4
319.49	7.02	stimulus	10	high_cue	low_stim	n/a	n/a	n/a	n/a	n/a	n/a	th108t1aaunaff_L.mp4
347.39	7.01	stimulus	11	high_cue	low_stim	n/a	n/a	n/a	n/a	n/a	n/a	bn080t1afunaff_L.mp4
382.49	7.01	stimulus	12	low_cue	med_stim	n/a	n/a	n/a	n/a	n/a	n/a	th108t2aaunaff_M.mp4
36.91	1.69	outcomerating	1	low_cue	low_stim	9.93	Weak	9.93	Weak	0.45	1.24	task-vicarious_scale.png
70.21	1.06	outcomerating	2	low_cue	med_stim	68.8	Very Strong	68.8	Very Strong	0.38	0.67	task-vicarious_scale.png
100.0	2.75	outcomerating	3	high_cue	med_stim	83.76	Very Strong	83.76	Very Strong	0.4	2.35	task-vicarious_scale.png
137.12	1.4	outcomerating	4	low_cue	high_stim	25.62	Moderate	25.62	Moderate	0.42	0.98	task-vicarious_scale.png
173.11	2.17	outcomerating	5	high_cue	med_stim	28.32	Moderate	28.32	Moderate	0.33	1.83	task-vicarious_scale.png
201.91	1.37	outcomerating	6	low_cue	high_stim	43.47	Strong	43.47	Strong	0.4	0.97	task-vicarious_scale.png
232.7	1.03	outcomerating	7	low_cue	low_stim	3.94	Weak	3.94	Weak	0.4	0.63	task-vicarious_scale.png
260.41	1.67	outcomerating	8	high_cue	high_stim	38.62	Strong	38.62	Strong	0.63	1.03	task-vicarious_scale.png
292.21	2.84	outcomerating	9	high_cue	high_stim	93.62	Very Strong	93.62	Very Strong	1.15	1.69	task-vicarious_scale.png
328.7	1.8	outcomerating	10	high_cue	low_stim	63.13	Strong	63.13	Strong	0.47	1.33	task-vicarious_scale.png
359.4	1.47	outcomerating	11	high_cue	low_stim	47.3	Strong	47.3	Strong	0.42	1.05	task-vicarious_scale.png
394.51	1.17	outcomerating	12	low_cue	med_stim	6.89	Weak	6.89	Weak	0.48	0.69	task-vicarious_scale.png
