onset	duration	trial_type	trial_index	cue	stimulusintensity	rating_value	rating_glmslabel	rating_value_fillna	rating_glmslabel_fillna	rating_mouseonset	rating_mousedur	stim_file
5.68	0.99	cue	1	high_cue	n/a	n/a	n/a	n/a	n/a	n/a	n/a	h009.png
28.99	0.98	cue	2	low_cue	n/a	n/a	n/a	n/a	n/a	n/a	n/a	l054.png
59.78	0.99	cue	3	low_cue	n/a	n/a	n/a	n/a	n/a	n/a	n/a	l017.png
94.88	0.99	cue	4	high_cue	n/a	n/a	n/a	n/a	n/a	n/a	n/a	h056.png
119.99	0.98	cue	5	low_cue	n/a	n/a	n/a	n/a	n/a	n/a	n/a	l014.png
162.39	0.98	cue	6	high_cue	n/a	n/a	n/a	n/a	n/a	n/a	n/a	h049.png
215.39	0.98	cue	7	low_cue	n/a	n/a	n/a	n/a	n/a	n/a	n/a	l021.png
251.69	0.98	cue	8	high_cue	n/a	n/a	n/a	n/a	n/a	n/a	n/a	h054.png
279.98	0.99	cue	9	high_cue	n/a	n/a	n/a	n/a	n/a	n/a	n/a	h043.png
308.39	0.98	cue	10	low_cue	n/a	n/a	n/a	n/a	n/a	n/a	n/a	l044.png
341.09	0.98	cue	11	high_cue	n/a	n/a	n/a	n/a	n/a	n/a	n/a	h015.png
374.28	0.99	cue	12	low_cue	n/a	n/a	n/a	n/a	n/a	n/a	n/a	l031.png
8.3	2.13	expectrating	1	high_cue	n/a	41.88	Strong	41.88	Strong	0.82	1.32	h009.png
31.99	1.55	expectrating	2	low_cue	n/a	12.53	Moderate	12.53	Moderate	0.62	0.94	l054.png
62.18	1.04	expectrating	3	low_cue	n/a	2.87	Barely detectable	2.87	Barely detectable	0.38	0.66	l017.png
97.28	1.82	expectrating	4	high_cue	n/a	48.0	Strong	48.0	Strong	0.63	1.18	h056.png
122.99	1.32	expectrating	5	low_cue	n/a	13.48	Moderate	13.48	Moderate	0.4	0.92	l014.png
165.39	1.74	expectrating	6	high_cue	n/a	73.05	Very Strong	73.05	Very Strong	0.38	1.35	h049.png
217.59	2.1	expectrating	7	low_cue	n/a	3.75	Weak	3.75	Weak	0.78	1.32	l021.png
254.29	2.15	expectrating	8	high_cue	n/a	87.93	Very Strong	87.93	Very Strong	0.38	1.77	h054.png
281.88	1.97	expectrating	9	high_cue	n/a	42.23	Strong	42.23	Strong	0.62	1.35	h043.png
311.39	1.95	expectrating	10	low_cue	n/a	9.46	Weak	9.46	Weak	0.38	1.57	l044.png
342.99	1.62	expectrating	11	high_cue	n/a	48.68	Strong	48.68	Strong	0.92	0.7	h015.png
376.18	1.23	expectrating	12	low_cue	n/a	6.98	Weak	6.98	Weak	0.15	1.08	l031.png
14.88	7.01	stimulus	1	high_cue	high_stim	n/a	n/a	n/a	n/a	n/a	n/a	ll042t1aiaff_H.mp4
43.88	7.0	stimulus	2	low_cue	high_stim	n/a	n/a	n/a	n/a	n/a	n/a	jk103t1aaaff_H.mp4
69.17	7.01	stimulus	3	low_cue	high_stim	n/a	n/a	n/a	n/a	n/a	n/a	jh123t1aeaff_H.mp4
104.47	7.01	stimulus	4	high_cue	high_stim	n/a	n/a	n/a	n/a	n/a	n/a	jl047t1aiaff_H.mp4
140.18	7.01	stimulus	5	low_cue	low_stim	n/a	n/a	n/a	n/a	n/a	n/a	nm106t1aaunaff_L.mp4
191.08	7.01	stimulus	6	high_cue	low_stim	n/a	n/a	n/a	n/a	n/a	n/a	jh123t1aaunaff_L.mp4
226.98	7.01	stimulus	7	low_cue	med_stim	n/a	n/a	n/a	n/a	n/a	n/a	nm106t2aaunaff_M.mp4
260.87	7.0	stimulus	8	high_cue	med_stim	n/a	n/a	n/a	n/a	n/a	n/a	jh123t2aaaff_M.mp4
289.87	7.01	stimulus	9	high_cue	med_stim	n/a	n/a	n/a	n/a	n/a	n/a	jl047t1aiunaff_M.mp4
318.98	7.01	stimulus	10	low_cue	med_stim	n/a	n/a	n/a	n/a	n/a	n/a	jk103t2aaunaff_M.mp4
354.88	7.0	stimulus	11	high_cue	low_stim	n/a	n/a	n/a	n/a	n/a	n/a	jk103t1aaunaff_L.mp4
382.97	7.02	stimulus	12	low_cue	low_stim	n/a	n/a	n/a	n/a	n/a	n/a	bg096t2afunaff_L.mp4
23.9	1.64	outcomerating	1	high_cue	high_stim	69.61	Very Strong	69.61	Very Strong	0.48	1.16	task-vicarious_scale.png
55.2	1.45	outcomerating	2	low_cue	high_stim	36.3	Strong	36.3	Strong	0.45	1.0	task-vicarious_scale.png
81.69	1.35	outcomerating	3	low_cue	high_stim	22.74	Moderate	22.74	Moderate	0.37	0.99	task-vicarious_scale.png
115.39	1.77	outcomerating	4	high_cue	high_stim	26.36	Moderate	26.36	Moderate	0.4	1.37	task-vicarious_scale.png
151.5	1.87	outcomerating	5	low_cue	low_stim	8.29	Weak	8.29	Weak	0.7	1.17	task-vicarious_scale.png
207.79	1.07	outcomerating	6	high_cue	low_stim	1.63	Barely detectable	1.63	Barely detectable	0.43	0.64	task-vicarious_scale.png
240.6	2.23	outcomerating	7	low_cue	med_stim	9.27	Weak	9.27	Weak	0.38	1.85	task-vicarious_scale.png
270.1	2.93	outcomerating	8	high_cue	med_stim	4.62	Weak	4.62	Weak	0.68	2.25	task-vicarious_scale.png
299.29	3.25	outcomerating	9	high_cue	med_stim	7.15	Weak	7.15	Weak	0.52	2.74	task-vicarious_scale.png
331.5	2.2	outcomerating	10	low_cue	med_stim	23.66	Moderate	23.66	Moderate	0.35	1.85	task-vicarious_scale.png
364.7	1.47	outcomerating	11	high_cue	low_stim	14.39	Moderate	14.39	Moderate	0.38	1.08	task-vicarious_scale.png
394.99	1.44	outcomerating	12	low_cue	low_stim	29.6	Strong	29.6	Strong	0.68	0.75	task-vicarious_scale.png
