onset	duration	trial_type	trial_index	cue	stimulusintensity	rating_value	rating_glmslabel	rating_value_fillna	rating_glmslabel_fillna	rating_mouseonset	rating_mousedur	stim_file	correct_response	participant_response	response_accuracy
5.68	0.99	cue	1	low_cue	n/a	n/a	n/a	n/a	n/a	n/a	n/a	l044.png	n/a	n/a	n/a
34.99	0.98	cue	2	high_cue	n/a	n/a	n/a	n/a	n/a	n/a	n/a	h034.png	n/a	n/a	n/a
62.68	0.99	cue	3	low_cue	n/a	n/a	n/a	n/a	n/a	n/a	n/a	l050.png	n/a	n/a	n/a
96.08	0.99	cue	4	high_cue	n/a	n/a	n/a	n/a	n/a	n/a	n/a	h003.png	n/a	n/a	n/a
131.57	1.0	cue	5	low_cue	n/a	n/a	n/a	n/a	n/a	n/a	n/a	l055.png	n/a	n/a	n/a
163.38	0.98	cue	6	low_cue	n/a	n/a	n/a	n/a	n/a	n/a	n/a	l013.png	n/a	n/a	n/a
193.38	0.99	cue	7	high_cue	n/a	n/a	n/a	n/a	n/a	n/a	n/a	h022.png	n/a	n/a	n/a
234.38	0.99	cue	8	low_cue	n/a	n/a	n/a	n/a	n/a	n/a	n/a	l030.png	n/a	n/a	n/a
259.09	0.98	cue	9	low_cue	n/a	n/a	n/a	n/a	n/a	n/a	n/a	l046.png	n/a	n/a	n/a
307.79	0.98	cue	10	high_cue	n/a	n/a	n/a	n/a	n/a	n/a	n/a	h040.png	n/a	n/a	n/a
340.68	0.99	cue	11	high_cue	n/a	n/a	n/a	n/a	n/a	n/a	n/a	h046.png	n/a	n/a	n/a
371.48	0.99	cue	12	high_cue	n/a	n/a	n/a	n/a	n/a	n/a	n/a	h008.png	n/a	n/a	n/a
8.99	2.95	expectrating	1	low_cue	n/a	26.98	Moderate	26.98	Moderate	1.77	1.18	l044.png	n/a	n/a	n/a
37.69	1.32	expectrating	2	high_cue	n/a	45.98	Strong	45.98	Strong	0.42	0.9	h034.png	n/a	n/a	n/a
65.88	1.99	expectrating	3	low_cue	n/a	7.44	Weak	7.44	Weak	0.73	1.26	l050.png	n/a	n/a	n/a
98.39	1.65	expectrating	4	high_cue	n/a	47.96	Strong	47.96	Strong	0.62	1.03	h003.png	n/a	n/a	n/a
134.29	1.67	expectrating	5	low_cue	n/a	9.46	Weak	9.46	Weak	0.48	1.18	l055.png	n/a	n/a	n/a
165.69	1.52	expectrating	6	low_cue	n/a	2.57	Barely detectable	2.57	Barely detectable	0.63	0.89	l013.png	n/a	n/a	n/a
194.98	2.28	expectrating	7	high_cue	n/a	28.3	Moderate	28.3	Moderate	0.83	1.45	h022.png	n/a	n/a	n/a
235.98	1.75	expectrating	8	low_cue	n/a	0.0		0.0		0.43	1.32	l030.png	n/a	n/a	n/a
260.99	1.27	expectrating	9	low_cue	n/a	6.01	Weak	6.01	Weak	0.62	0.65	l046.png	n/a	n/a	n/a
310.99	1.59	expectrating	10	high_cue	n/a	27.18	Moderate	27.18	Moderate	0.5	1.09	h040.png	n/a	n/a	n/a
342.59	1.31	expectrating	11	high_cue	n/a	27.41	Moderate	27.41	Moderate	0.5	0.81	h046.png	n/a	n/a	n/a
374.78		expectrating	12	high_cue	n/a							h008.png	n/a	n/a	n/a
19.38	7.0	stimulus	1	low_cue	med_stim	n/a	n/a	n/a	n/a	n/a	n/a	22_100.jpg	same	same	True
44.69	6.99	stimulus	2	high_cue	low_stim	n/a	n/a	n/a	n/a	n/a	n/a	24_50.jpg	same	same	True
78.39	7.0	stimulus	3	low_cue	high_stim	n/a	n/a	n/a	n/a	n/a	n/a	24_150_R.jpg	diff	diff	True
106.58	7.0	stimulus	4	high_cue	med_stim	n/a	n/a	n/a	n/a	n/a	n/a	9_100_R.jpg	diff	diff	True
142.98	7.0	stimulus	5	low_cue	med_stim	n/a	n/a	n/a	n/a	n/a	n/a	23_100_R.jpg	diff	diff	True
180.79	6.99	stimulus	6	low_cue	high_stim	n/a	n/a	n/a	n/a	n/a	n/a	43_150_R.jpg	diff	diff	True
203.18	7.0	stimulus	7	high_cue	high_stim	n/a	n/a	n/a	n/a	n/a	n/a	10_150.jpg	same	same	True
243.88	7.0	stimulus	8	low_cue	low_stim	n/a	n/a	n/a	n/a	n/a	n/a	17_50.jpg	same	same	True
276.08	7.0	stimulus	9	low_cue	low_stim	n/a	n/a	n/a	n/a	n/a	n/a	34_50.jpg	same	same	True
318.89	6.99	stimulus	10	high_cue	low_stim	n/a	n/a	n/a	n/a	n/a	n/a	23_50.jpg	same	same	True
355.29	6.99	stimulus	11	high_cue	med_stim	n/a	n/a	n/a	n/a	n/a	n/a	17_100_R.jpg	diff	diff	True
387.29	7.0	stimulus	12	high_cue	high_stim	n/a	n/a	n/a	n/a	n/a	n/a	34_150_R.jpg	diff	diff	True
28.08	1.46	outcomerating	1	low_cue	med_stim	11.81	Moderate	11.81	Moderate	0.53	0.92	task-cognitive_scale.png	n/a	n/a	n/a
58.18	1.58	outcomerating	2	high_cue	low_stim	10.45	Moderate	10.45	Moderate	0.4	1.18	task-cognitive_scale.png	n/a	n/a	n/a
91.59	1.17	outcomerating	3	low_cue	high_stim	1.84	Barely detectable	1.84	Barely detectable	0.58	0.58	task-cognitive_scale.png	n/a	n/a	n/a
114.78	2.26	outcomerating	4	high_cue	med_stim	15.79	Moderate	15.79	Moderate	0.6	1.66	task-cognitive_scale.png	n/a	n/a	n/a
156.2	2.35	outcomerating	5	low_cue	med_stim	12.58	Moderate	12.58	Moderate	0.43	1.92	task-cognitive_scale.png	n/a	n/a	n/a
188.58	1.73	outcomerating	6	low_cue	high_stim	9.69	Weak	9.69	Weak	0.68	1.05	task-cognitive_scale.png	n/a	n/a	n/a
227.89	2.18	outcomerating	7	high_cue	high_stim	44.19	Strong	44.19	Strong	0.42	1.77	task-cognitive_scale.png	n/a	n/a	n/a
252.88	1.61	outcomerating	8	low_cue	low_stim	12.26	Moderate	12.26	Moderate	0.73	0.87	task-cognitive_scale.png	n/a	n/a	n/a
290.98	1.59	outcomerating	9	low_cue	low_stim	10.41	Moderate	10.41	Moderate	0.42	1.18	task-cognitive_scale.png	n/a	n/a	n/a
327.58	1.52	outcomerating	10	high_cue	low_stim	3.46	Weak	3.46	Weak	0.82	0.7	task-cognitive_scale.png	n/a	n/a	n/a
363.79	1.4	outcomerating	11	high_cue	med_stim	14.37	Moderate	14.37	Moderate	0.8	0.6	task-cognitive_scale.png	n/a	n/a	n/a
395.09	1.3	outcomerating	12	high_cue	high_stim	32.6	Strong	32.6	Strong	0.43	0.87	task-cognitive_scale.png	n/a	n/a	n/a
