onset	duration	trial_type	trial_index	cue	stimulusintensity	rating_value	rating_glmslabel	rating_value_fillna	rating_glmslabel_fillna	rating_mouseonset	rating_mousedur	stim_file
5.39	0.99	cue	1	high_cue	n/a	n/a	n/a	n/a	n/a	n/a	n/a	h036.png
35.09	0.99	cue	2	high_cue	n/a	n/a	n/a	n/a	n/a	n/a	n/a	h011.png
68.68	0.99	cue	3	high_cue	n/a	n/a	n/a	n/a	n/a	n/a	n/a	h019.png
96.59	0.98	cue	4	low_cue	n/a	n/a	n/a	n/a	n/a	n/a	n/a	l013.png
123.99	0.99	cue	5	high_cue	n/a	n/a	n/a	n/a	n/a	n/a	n/a	h024.png
167.28	0.99	cue	6	high_cue	n/a	n/a	n/a	n/a	n/a	n/a	n/a	h037.png
203.28	0.99	cue	7	low_cue	n/a	n/a	n/a	n/a	n/a	n/a	n/a	l056.png
238.69	0.98	cue	8	low_cue	n/a	n/a	n/a	n/a	n/a	n/a	n/a	l040.png
276.89	0.98	cue	9	low_cue	n/a	n/a	n/a	n/a	n/a	n/a	n/a	l041.png
312.29	0.99	cue	10	low_cue	n/a	n/a	n/a	n/a	n/a	n/a	n/a	l003.png
347.39	0.99	cue	11	high_cue	n/a	n/a	n/a	n/a	n/a	n/a	n/a	h020.png
373.19	0.98	cue	12	low_cue	n/a	n/a	n/a	n/a	n/a	n/a	n/a	l009.png
8.21	1.76	expectrating	1	high_cue	n/a	124.33	Strongest sensation of any kind	124.33	Strongest sensation of any kind	0.05	1.71	h036.png
37.49		expectrating	2	high_cue	n/a							h011.png
71.1	1.47	expectrating	3	high_cue	n/a	90.46	Very Strong	90.46	Very Strong	0.07	1.4	h019.png
98.09	3.21	expectrating	4	low_cue	n/a	85.85	Very Strong	85.85	Very Strong	0.98	2.22	l013.png
126.79	1.45	expectrating	5	high_cue	n/a	88.15	Very Strong	88.15	Very Strong	0.05	1.4	h024.png
170.09	1.82	expectrating	6	high_cue	n/a	89.54	Very Strong	89.54	Very Strong	0.05	1.77	h037.png
205.2	2.0	expectrating	7	low_cue	n/a	30.15	Strong	30.15	Strong	0.07	1.93	l056.png
241.9	1.92	expectrating	8	low_cue	n/a	11.13	Moderate	11.13	Moderate	0.35	1.57	l040.png
280.09	2.8	expectrating	9	low_cue	n/a	3.94	Weak	3.94	Weak	0.08	2.72	l041.png
315.09	2.52	expectrating	10	low_cue	n/a	14.85	Moderate	14.85	Moderate	0.05	2.47	l003.png
349.09	2.07	expectrating	11	high_cue	n/a	117.44	Strongest sensation of any kind	117.44	Strongest sensation of any kind	0.3	1.77	h020.png
375.7	2.42	expectrating	12	low_cue	n/a	34.71	Strong	34.71	Strong	0.05	2.37	l009.png
18.98	7.0	stimulus	1	high_cue	low_stim	n/a	n/a	n/a	n/a	n/a	n/a	bg096t2afunaff_L.mp4
48.28	7.01	stimulus	2	high_cue	high_stim	n/a	n/a	n/a	n/a	n/a	n/a	mg101t2aeaff_H.mp4
81.38	7.01	stimulus	3	high_cue	med_stim	n/a	n/a	n/a	n/a	n/a	n/a	ib109t1afaff_M.mp4
105.68	7.0	stimulus	4	low_cue	low_stim	n/a	n/a	n/a	n/a	n/a	n/a	ib109t1aiunaff_L.mp4
134.38	7.01	stimulus	5	high_cue	high_stim	n/a	n/a	n/a	n/a	n/a	n/a	tv095t1afaff_H.mp4
180.48	7.01	stimulus	6	high_cue	low_stim	n/a	n/a	n/a	n/a	n/a	n/a	bm049t1afaff_L.mp4
220.58	7.01	stimulus	7	low_cue	med_stim	n/a	n/a	n/a	n/a	n/a	n/a	mg101t2aeunaff_M.mp4
256.88	7.01	stimulus	8	low_cue	high_stim	n/a	n/a	n/a	n/a	n/a	n/a	bg096t1aeaff_H.mp4
290.48	7.0	stimulus	9	low_cue	med_stim	n/a	n/a	n/a	n/a	n/a	n/a	dr052t2aaaff_M.mp4
325.38	7.0	stimulus	10	low_cue	low_stim	n/a	n/a	n/a	n/a	n/a	n/a	bn080t1afunaff_L.mp4
356.68	7.01	stimulus	11	high_cue	med_stim	n/a	n/a	n/a	n/a	n/a	n/a	tv095t2afaff_M.mp4
385.58	7.01	stimulus	12	low_cue	high_stim	n/a	n/a	n/a	n/a	n/a	n/a	bm049t2aeunaff_H.mp4
30.3		outcomerating	1	high_cue	low_stim			58.6	Strong	0.95	2.72	task-vicarious_scale.png
58.79	1.79	outcomerating	2	high_cue	high_stim	18.87	Moderate	18.87	Moderate	0.22	1.57	task-vicarious_scale.png
91.89	1.81	outcomerating	3	high_cue	med_stim	81.18	Very Strong	81.18	Very Strong	0.88	0.92	task-vicarious_scale.png
117.7	2.65	outcomerating	4	low_cue	low_stim	25.53	Moderate	25.53	Moderate	0.48	2.17	task-vicarious_scale.png
151.7	2.07	outcomerating	5	high_cue	high_stim	17.05	Moderate	17.05	Moderate	0.72	1.35	task-vicarious_scale.png
192.89	3.45	outcomerating	6	high_cue	low_stim	53.64	Strong	53.64	Strong	0.97	2.49	task-vicarious_scale.png
228.69	2.56	outcomerating	7	low_cue	med_stim	16.98	Moderate	16.98	Moderate	1.12	1.44	task-vicarious_scale.png
267.79	2.18	outcomerating	8	low_cue	high_stim	26.15	Moderate	26.15	Moderate	0.05	2.13	task-vicarious_scale.png
305.7	2.88	outcomerating	9	low_cue	med_stim	10.18	Moderate	10.18	Moderate	0.58	2.3	task-vicarious_scale.png
335.6	2.67	outcomerating	10	low_cue	low_stim	32.03	Strong	32.03	Strong	0.3	2.37	task-vicarious_scale.png
366.89	3.12	outcomerating	11	high_cue	med_stim	34.07	Strong	34.07	Strong	0.68	2.44	task-vicarious_scale.png
394.8	2.1	outcomerating	12	low_cue	high_stim	20.7	Moderate	20.7	Moderate	0.8	1.3	task-vicarious_scale.png
