onset	duration	trial_type	trial_index	cue	stimulusintensity	rating_value	rating_glmslabel	rating_value_fillna	rating_glmslabel_fillna	rating_mouseonset	rating_mousedur	stim_file
11.59	0.99	cue	1	low_cue	n/a	n/a	n/a	n/a	n/a	n/a	n/a	l019.png
42.4	0.98	cue	2	high_cue	n/a	n/a	n/a	n/a	n/a	n/a	n/a	h053.png
74.19	0.99	cue	3	high_cue	n/a	n/a	n/a	n/a	n/a	n/a	n/a	h004.png
110.59	0.99	cue	4	high_cue	n/a	n/a	n/a	n/a	n/a	n/a	n/a	h001.png
139.9	0.98	cue	5	low_cue	n/a	n/a	n/a	n/a	n/a	n/a	n/a	l036.png
181.28	0.99	cue	6	low_cue	n/a	n/a	n/a	n/a	n/a	n/a	n/a	l046.png
216.09	0.98	cue	7	low_cue	n/a	n/a	n/a	n/a	n/a	n/a	n/a	l011.png
250.39	0.99	cue	8	low_cue	n/a	n/a	n/a	n/a	n/a	n/a	n/a	l016.png
287.69	0.99	cue	9	high_cue	n/a	n/a	n/a	n/a	n/a	n/a	n/a	h041.png
317.98	0.99	cue	10	high_cue	n/a	n/a	n/a	n/a	n/a	n/a	n/a	h014.png
343.89	0.98	cue	11	high_cue	n/a	n/a	n/a	n/a	n/a	n/a	n/a	h051.png
374.79	0.99	cue	12	low_cue	n/a	n/a	n/a	n/a	n/a	n/a	n/a	l025.png
14.8	2.6	expectrating	1	low_cue	n/a	59.28	Strong	59.28	Strong	0.07	2.53	l019.png
44.2	2.57	expectrating	2	high_cue	n/a	63.33	Strong	63.33	Strong	0.87	1.7	h053.png
77.39	1.81	expectrating	3	high_cue	n/a	73.39	Very Strong	73.39	Very Strong	0.17	1.64	h004.png
113.29	2.2	expectrating	4	high_cue	n/a	71.93	Very Strong	71.93	Very Strong	0.28	1.92	h001.png
143.1	1.62	expectrating	5	low_cue	n/a	17.71	Moderate	17.71	Moderate	0.05	1.57	l036.png
183.7	2.72	expectrating	6	low_cue	n/a	62.31	Strong	62.31	Strong	0.95	1.77	l046.png
218.7	2.67	expectrating	7	low_cue	n/a	16.61	Moderate	16.61	Moderate	0.05	2.62	l011.png
253.09	2.59	expectrating	8	low_cue	n/a	14.37	Moderate	14.37	Moderate	0.77	1.82	l016.png
289.49	2.63	expectrating	9	high_cue	n/a	41.21	Strong	41.21	Strong	0.38	2.25	h041.png
320.58	3.22	expectrating	10	high_cue	n/a	44.02	Strong	44.02	Strong	1.17	2.05	h014.png
345.69	1.84	expectrating	11	high_cue	n/a	50.05	Strong	50.05	Strong	0.1	1.74	h051.png
376.69	2.97	expectrating	12	low_cue	n/a	39.31	Strong	39.31	Strong	1.45	1.52	l025.png
21.48	7.01	stimulus	1	low_cue	low_stim	n/a	n/a	n/a	n/a	n/a	n/a	nm106t1aaunaff_L.mp4
57.48	7.01	stimulus	2	high_cue	med_stim	n/a	n/a	n/a	n/a	n/a	n/a	bn080t1aeaff_M.mp4
85.08	7.0	stimulus	3	high_cue	low_stim	n/a	n/a	n/a	n/a	n/a	n/a	mg101t2afunaff_L.mp4
119.98	7.01	stimulus	4	high_cue	high_stim	n/a	n/a	n/a	n/a	n/a	n/a	nm106t1afaff_H.mp4
156.78	7.01	stimulus	5	low_cue	med_stim	n/a	n/a	n/a	n/a	n/a	n/a	bg096t2aaaff_M.mp4
196.78	7.01	stimulus	6	low_cue	high_stim	n/a	n/a	n/a	n/a	n/a	n/a	bn080t1afaff_H.mp4
235.78	7.01	stimulus	7	low_cue	med_stim	n/a	n/a	n/a	n/a	n/a	n/a	bm049t2aeaff_M.mp4
265.78	7.0	stimulus	8	low_cue	high_stim	n/a	n/a	n/a	n/a	n/a	n/a	ib109t1aiaff_H.mp4
297.08	7.02	stimulus	9	high_cue	low_stim	n/a	n/a	n/a	n/a	n/a	n/a	tv095t2aeunaff_L.mp4
328.18	7.01	stimulus	10	high_cue	high_stim	n/a	n/a	n/a	n/a	n/a	n/a	dr052t1aiaff_H.mp4
357.78	7.0	stimulus	11	high_cue	med_stim	n/a	n/a	n/a	n/a	n/a	n/a	nm106t2aaunaff_M.mp4
384.28	7.01	stimulus	12	low_cue	low_stim	n/a	n/a	n/a	n/a	n/a	n/a	dr052t1aeunaff_L.mp4
36.89	3.79	outcomerating	1	low_cue	low_stim	25.53	Moderate	25.53	Moderate	0.05	3.74	task-vicarious_scale.png
67.51	1.78	outcomerating	2	high_cue	med_stim	78.69	Very Strong	78.69	Very Strong	0.05	1.73	task-vicarious_scale.png
96.6	2.68	outcomerating	3	high_cue	low_stim	56.44	Strong	56.44	Strong	0.83	1.85	task-vicarious_scale.png
133.2	2.58	outcomerating	4	high_cue	high_stim	58.6	Strong	58.6	Strong	1.05	1.53	task-vicarious_scale.png
165.69	1.86	outcomerating	5	low_cue	med_stim	77.2	Very Strong	77.2	Very Strong	0.27	1.59	task-vicarious_scale.png
210.39		outcomerating	6	low_cue	high_stim			18.43	Moderate	3.58	0.35	task-vicarious_scale.png
244.51		outcomerating	7	low_cue	med_stim							task-vicarious_scale.png
282.7	2.42	outcomerating	8	low_cue	high_stim	31.83	Strong	31.83	Strong	1.2	1.22	task-vicarious_scale.png
308.2	3.02	outcomerating	9	high_cue	low_stim	14.15	Moderate	14.15	Moderate	0.93	2.09	task-vicarious_scale.png
337.49	2.16	outcomerating	10	high_cue	high_stim	75.13	Very Strong	75.13	Very Strong	1.02	1.14	task-vicarious_scale.png
366.7	2.1	outcomerating	11	high_cue	med_stim	51.66	Strong	51.66	Strong	0.05	2.05	task-vicarious_scale.png
394.79	2.85	outcomerating	12	low_cue	low_stim	13.98	Moderate	13.98	Moderate	0.12	2.74	task-vicarious_scale.png
