onset	duration	trial_type	trial_index	cue	stimulusintensity	rating_value	rating_glmslabel	rating_value_fillna	rating_glmslabel_fillna	rating_mouseonset	rating_mousedur	stim_file
4.71	0.98	cue	1	high_cue	n/a	n/a	n/a	n/a	n/a	n/a	n/a	h003.png
33.0	0.99	cue	2	low_cue	n/a	n/a	n/a	n/a	n/a	n/a	n/a	l016.png
57.99	0.99	cue	3	low_cue	n/a	n/a	n/a	n/a	n/a	n/a	n/a	l053.png
83.4	0.98	cue	4	low_cue	n/a	n/a	n/a	n/a	n/a	n/a	n/a	l009.png
115.8	0.99	cue	5	high_cue	n/a	n/a	n/a	n/a	n/a	n/a	n/a	h050.png
139.61	0.98	cue	6	high_cue	n/a	n/a	n/a	n/a	n/a	n/a	n/a	h010.png
167.6	0.99	cue	7	high_cue	n/a	n/a	n/a	n/a	n/a	n/a	n/a	h042.png
213.4	0.99	cue	8	high_cue	n/a	n/a	n/a	n/a	n/a	n/a	n/a	h046.png
244.1	0.99	cue	9	low_cue	n/a	n/a	n/a	n/a	n/a	n/a	n/a	l046.png
275.09	1.0	cue	10	low_cue	n/a	n/a	n/a	n/a	n/a	n/a	n/a	l026.png
317.61	0.98	cue	11	low_cue	n/a	n/a	n/a	n/a	n/a	n/a	n/a	l005.png
362.31	0.98	cue	12	high_cue	n/a	n/a	n/a	n/a	n/a	n/a	n/a	h029.png
7.11	1.02	expectrating	1	high_cue	n/a	51.3	Strong	51.3	Strong	0.37	0.66	h003.png
34.8	1.48	expectrating	2	low_cue	n/a	4.63	Weak	4.63	Weak	0.52	0.97	l016.png
60.11	1.02	expectrating	3	low_cue	n/a	48.66	Strong	48.66	Strong	0.4	0.62	l053.png
86.5	1.28	expectrating	4	low_cue	n/a	20.45	Moderate	20.45	Moderate	0.35	0.93	l009.png
118.2	2.1	expectrating	5	high_cue	n/a	39.14	Strong	39.14	Strong	0.52	1.58	h050.png
141.71	1.13	expectrating	6	high_cue	n/a	61.37	Strong	61.37	Strong	0.42	0.72	h010.png
169.7	2.45	expectrating	7	high_cue	n/a	25.1	Moderate	25.1	Moderate	0.05	2.4	h042.png
215.5	1.05	expectrating	8	high_cue	n/a	49.27	Strong	49.27	Strong	0.43	0.62	h046.png
247.2	1.43	expectrating	9	low_cue	n/a	84.27	Very Strong	84.27	Very Strong	0.33	1.1	l046.png
278.21	1.69	expectrating	10	low_cue	n/a	8.92	Weak	8.92	Weak	0.33	1.36	l026.png
320.01	1.37	expectrating	11	low_cue	n/a	36.78	Strong	36.78	Strong	0.3	1.07	l005.png
365.41	1.51	expectrating	12	high_cue	n/a	36.36	Strong	36.36	Strong	0.57	0.94	h029.png
17.69	7.01	stimulus	1	high_cue	low_stim	n/a	n/a	n/a	n/a	n/a	n/a	bm049t1afaff_L.mp4
41.89	7.02	stimulus	2	low_cue	low_stim	n/a	n/a	n/a	n/a	n/a	n/a	bn080t1afunaff_L.mp4
68.69	7.01	stimulus	3	low_cue	med_stim	n/a	n/a	n/a	n/a	n/a	n/a	bm049t2aeaff_M.mp4
101.89	7.01	stimulus	4	low_cue	high_stim	n/a	n/a	n/a	n/a	n/a	n/a	bm049t2aeunaff_H.mp4
125.59	7.01	stimulus	5	high_cue	med_stim	n/a	n/a	n/a	n/a	n/a	n/a	dn124t1aeunaff_M.mp4
153.19	7.01	stimulus	6	high_cue	high_stim	n/a	n/a	n/a	n/a	n/a	n/a	bn080t1afaff_H.mp4
182.49	7.0	stimulus	7	high_cue	low_stim	n/a	n/a	n/a	n/a	n/a	n/a	gf097t2aiunaff_L.mp4
226.59	7.0	stimulus	8	high_cue	high_stim	n/a	n/a	n/a	n/a	n/a	n/a	ll042t1aiaff_H.mp4
257.79	7.01	stimulus	9	low_cue	low_stim	n/a	n/a	n/a	n/a	n/a	n/a	th108t1aaunaff_L.mp4
285.29	7.01	stimulus	10	low_cue	med_stim	n/a	n/a	n/a	n/a	n/a	n/a	th108t2aaunaff_M.mp4
331.59	7.01	stimulus	11	low_cue	high_stim	n/a	n/a	n/a	n/a	n/a	n/a	dr052t1aiaff_H.mp4
377.49	7.01	stimulus	12	high_cue	med_stim	n/a	n/a	n/a	n/a	n/a	n/a	dr052t2aaaff_M.mp4
27.11	2.13	outcomerating	1	high_cue	low_stim	32.92	Strong	32.92	Strong	0.43	1.7	task-vicarious_scale.png
53.11	2.56	outcomerating	2	low_cue	low_stim	13.24	Moderate	13.24	Moderate	0.38	2.17	task-vicarious_scale.png
78.3	2.37	outcomerating	3	low_cue	med_stim	22.41	Moderate	22.41	Moderate	0.42	1.95	task-vicarious_scale.png
111.21	2.47	outcomerating	4	low_cue	high_stim	2.3	Barely detectable	2.3	Barely detectable	0.38	2.08	task-vicarious_scale.png
134.9	1.89	outcomerating	5	high_cue	med_stim	21.67	Moderate	21.67	Moderate	0.37	1.53	task-vicarious_scale.png
161.61	1.57	outcomerating	6	high_cue	high_stim	86.78	Very Strong	86.78	Very Strong	0.45	1.12	task-vicarious_scale.png
201.71	2.3	outcomerating	7	high_cue	low_stim	4.92	Weak	4.92	Weak	0.5	1.8	task-vicarious_scale.png
239.21	1.89	outcomerating	8	high_cue	high_stim	57.14	Strong	57.14	Strong	0.4	1.49	task-vicarious_scale.png
269.11	1.94	outcomerating	9	low_cue	low_stim	2.07	Barely detectable	2.07	Barely detectable	0.4	1.54	task-vicarious_scale.png
296.52	2.33	outcomerating	10	low_cue	med_stim	14.26	Moderate	14.26	Moderate	0.42	1.92	task-vicarious_scale.png
341.32	3.38	outcomerating	11	low_cue	high_stim	65.71	Very Strong	65.71	Very Strong	0.47	2.92	task-vicarious_scale.png
394.1	1.78	outcomerating	12	high_cue	med_stim	3.0	Barely detectable	3.0	Barely detectable	0.38	1.4	task-vicarious_scale.png
