onset	duration	trial_type	trial_index	cue	stimulusintensity	rating_value	rating_glmslabel	rating_value_fillna	rating_glmslabel_fillna	rating_mouseonset	rating_mousedur	stim_file	correct_response	participant_response	response_accuracy
5.69	0.98	cue	1	low_cue	n/a	n/a	n/a	n/a	n/a	n/a	n/a	l044.png	n/a	n/a	n/a
34.99	0.99	cue	2	high_cue	n/a	n/a	n/a	n/a	n/a	n/a	n/a	h034.png	n/a	n/a	n/a
62.68	0.99	cue	3	low_cue	n/a	n/a	n/a	n/a	n/a	n/a	n/a	l050.png	n/a	n/a	n/a
96.1	0.98	cue	4	high_cue	n/a	n/a	n/a	n/a	n/a	n/a	n/a	h003.png	n/a	n/a	n/a
131.59	0.99	cue	5	low_cue	n/a	n/a	n/a	n/a	n/a	n/a	n/a	l055.png	n/a	n/a	n/a
163.39	0.99	cue	6	low_cue	n/a	n/a	n/a	n/a	n/a	n/a	n/a	l013.png	n/a	n/a	n/a
193.38	1.0	cue	7	high_cue	n/a	n/a	n/a	n/a	n/a	n/a	n/a	h022.png	n/a	n/a	n/a
234.4	0.98	cue	8	low_cue	n/a	n/a	n/a	n/a	n/a	n/a	n/a	l030.png	n/a	n/a	n/a
259.09	0.99	cue	9	low_cue	n/a	n/a	n/a	n/a	n/a	n/a	n/a	l046.png	n/a	n/a	n/a
307.79	0.99	cue	10	high_cue	n/a	n/a	n/a	n/a	n/a	n/a	n/a	h040.png	n/a	n/a	n/a
340.69	0.99	cue	11	high_cue	n/a	n/a	n/a	n/a	n/a	n/a	n/a	h046.png	n/a	n/a	n/a
371.48	1.0	cue	12	high_cue	n/a	n/a	n/a	n/a	n/a	n/a	n/a	h008.png	n/a	n/a	n/a
9.01	1.57	expectrating	1	low_cue	n/a	70.91	Very Strong	70.91	Very Strong	0.5	1.07	l044.png	n/a	n/a	n/a
37.69	1.44	expectrating	2	high_cue	n/a	36.87	Strong	36.87	Strong	0.32	1.13	h034.png	n/a	n/a	n/a
65.9	1.52	expectrating	3	low_cue	n/a	47.77	Strong	47.77	Strong	0.4	1.12	l050.png	n/a	n/a	n/a
98.4	1.32	expectrating	4	high_cue	n/a	57.58	Strong	57.58	Strong	0.38	0.94	h003.png	n/a	n/a	n/a
134.29	0.87	expectrating	5	low_cue	n/a	59.68	Strong	59.68	Strong	0.28	0.59	l055.png	n/a	n/a	n/a
165.69	1.98	expectrating	6	low_cue	n/a	47.28	Strong	47.28	Strong	0.88	1.1	l013.png	n/a	n/a	n/a
195.0	1.85	expectrating	7	high_cue	n/a	58.09	Strong	58.09	Strong	0.77	1.08	h022.png	n/a	n/a	n/a
236.0	2.02	expectrating	8	low_cue	n/a	33.42	Strong	33.42	Strong	0.67	1.35	l030.png	n/a	n/a	n/a
260.99	2.44	expectrating	9	low_cue	n/a	55.93	Strong	55.93	Strong	0.52	1.93	l046.png	n/a	n/a	n/a
310.99	1.62	expectrating	10	high_cue	n/a	50.69	Strong	50.69	Strong	0.47	1.16	h040.png	n/a	n/a	n/a
342.59	1.27	expectrating	11	high_cue	n/a	44.34	Strong	44.34	Strong	0.48	0.78	h046.png	n/a	n/a	n/a
374.8	1.53	expectrating	12	high_cue	n/a	53.65	Strong	53.65	Strong	0.33	1.2	h008.png	n/a	n/a	n/a
19.4	6.99	stimulus	1	low_cue	med_stim	n/a	n/a	n/a	n/a	n/a	n/a	22_100.jpg	same	same	True
44.69	7.0	stimulus	2	high_cue	low_stim	n/a	n/a	n/a	n/a	n/a	n/a	24_50.jpg	same	diff	False
78.39	7.0	stimulus	3	low_cue	high_stim	n/a	n/a	n/a	n/a	n/a	n/a	24_150_R.jpg	diff	same	False
106.6	6.99	stimulus	4	high_cue	med_stim	n/a	n/a	n/a	n/a	n/a	n/a	9_100_R.jpg	diff	diff	True
143.0	6.99	stimulus	5	low_cue	med_stim	n/a	n/a	n/a	n/a	n/a	n/a	23_100_R.jpg	diff	diff	True
180.79	7.0	stimulus	6	low_cue	high_stim	n/a	n/a	n/a	n/a	n/a	n/a	43_150_R.jpg	diff	same	False
203.18	7.0	stimulus	7	high_cue	high_stim	n/a	n/a	n/a	n/a	n/a	n/a	10_150.jpg	same	same	True
243.9	6.99	stimulus	8	low_cue	low_stim	n/a	n/a	n/a	n/a	n/a	n/a	17_50.jpg	same	diff	False
276.1	7.0	stimulus	9	low_cue	low_stim	n/a	n/a	n/a	n/a	n/a	n/a	34_50.jpg	same	same	True
318.89	7.0	stimulus	10	high_cue	low_stim	n/a	n/a	n/a	n/a	n/a	n/a	23_50.jpg	same	diff	False
355.29	7.0	stimulus	11	high_cue	med_stim	n/a	n/a	n/a	n/a	n/a	n/a	17_100_R.jpg	diff	diff	True
387.29	7.0	stimulus	12	high_cue	high_stim	n/a	n/a	n/a	n/a	n/a	n/a	34_150_R.jpg	diff	diff	True
28.1	1.55	outcomerating	1	low_cue	med_stim	57.85	Strong	57.85	Strong	0.4	1.15	task-cognitive_scale.png	n/a	n/a	n/a
58.2	1.97	outcomerating	2	high_cue	low_stim	33.05	Strong	33.05	Strong	0.37	1.6	task-cognitive_scale.png	n/a	n/a	n/a
91.59	1.96	outcomerating	3	low_cue	high_stim	12.03	Moderate	12.03	Moderate	0.38	1.57	task-cognitive_scale.png	n/a	n/a	n/a
114.8	1.83	outcomerating	4	high_cue	med_stim	46.67	Strong	46.67	Strong	0.52	1.32	task-cognitive_scale.png	n/a	n/a	n/a
156.2	2.22	outcomerating	5	low_cue	med_stim	38.12	Strong	38.12	Strong	0.52	1.7	task-cognitive_scale.png	n/a	n/a	n/a
188.6	1.62	outcomerating	6	low_cue	high_stim	73.32	Very Strong	73.32	Very Strong	0.67	0.95	task-cognitive_scale.png	n/a	n/a	n/a
227.89	3.3	outcomerating	7	high_cue	high_stim	52.76	Strong	52.76	Strong	1.02	2.29	task-cognitive_scale.png	n/a	n/a	n/a
252.89	1.6	outcomerating	8	low_cue	low_stim	75.56	Very Strong	75.56	Very Strong	0.38	1.22	task-cognitive_scale.png	n/a	n/a	n/a
290.98	1.55	outcomerating	9	low_cue	low_stim	18.94	Moderate	18.94	Moderate	0.38	1.17	task-cognitive_scale.png	n/a	n/a	n/a
327.6	1.88	outcomerating	10	high_cue	low_stim	61.37	Strong	61.37	Strong	0.55	1.33	task-cognitive_scale.png	n/a	n/a	n/a
363.79	2.0	outcomerating	11	high_cue	med_stim	37.47	Strong	37.47	Strong	0.68	1.32	task-cognitive_scale.png	n/a	n/a	n/a
395.11	1.85	outcomerating	12	high_cue	high_stim	31.0	Strong	31.0	Strong	0.75	1.1	task-cognitive_scale.png	n/a	n/a	n/a
