onset	duration	trial_type	trial_index	cue	stimulusintensity	rating_value	rating_glmslabel	rating_value_fillna	rating_glmslabel_fillna	rating_mouseonset	rating_mousedur	stim_file	correct_response	participant_response	response_accuracy
5.69	0.99	cue	1	high_cue	n/a	n/a	n/a	n/a	n/a	n/a	n/a	h004.png	n/a	n/a	n/a
28.99	0.98	cue	2	low_cue	n/a	n/a	n/a	n/a	n/a	n/a	n/a	l048.png	n/a	n/a	n/a
59.79	0.99	cue	3	low_cue	n/a	n/a	n/a	n/a	n/a	n/a	n/a	l019.png	n/a	n/a	n/a
94.89	0.99	cue	4	high_cue	n/a	n/a	n/a	n/a	n/a	n/a	n/a	h049.png	n/a	n/a	n/a
119.99	0.98	cue	5	low_cue	n/a	n/a	n/a	n/a	n/a	n/a	n/a	l010.png	n/a	n/a	n/a
162.39	0.98	cue	6	high_cue	n/a	n/a	n/a	n/a	n/a	n/a	n/a	h041.png	n/a	n/a	n/a
215.4	0.98	cue	7	low_cue	n/a	n/a	n/a	n/a	n/a	n/a	n/a	l053.png	n/a	n/a	n/a
251.69	0.98	cue	8	high_cue	n/a	n/a	n/a	n/a	n/a	n/a	n/a	h033.png	n/a	n/a	n/a
279.99	0.99	cue	9	high_cue	n/a	n/a	n/a	n/a	n/a	n/a	n/a	h017.png	n/a	n/a	n/a
308.4	0.98	cue	10	low_cue	n/a	n/a	n/a	n/a	n/a	n/a	n/a	l028.png	n/a	n/a	n/a
341.09	0.98	cue	11	high_cue	n/a	n/a	n/a	n/a	n/a	n/a	n/a	h054.png	n/a	n/a	n/a
374.29	0.99	cue	12	low_cue	n/a	n/a	n/a	n/a	n/a	n/a	n/a	l011.png	n/a	n/a	n/a
8.3	3.35	expectrating	1	high_cue	n/a	58.64	Strong	58.64	Strong	0.72	2.64	h004.png	n/a	n/a	n/a
32.0	1.67	expectrating	2	low_cue	n/a	29.26	Strong	29.26	Strong	0.43	1.23	l048.png	n/a	n/a	n/a
62.19	2.2	expectrating	3	low_cue	n/a	10.63	Moderate	10.63	Moderate	0.58	1.62	l019.png	n/a	n/a	n/a
97.29	1.95	expectrating	4	high_cue	n/a	54.7	Strong	54.7	Strong	0.05	1.9	h049.png	n/a	n/a	n/a
123.0	1.55	expectrating	5	low_cue	n/a	40.89	Strong	40.89	Strong	0.42	1.13	l010.png	n/a	n/a	n/a
165.4	1.9	expectrating	6	high_cue	n/a	50.08	Strong	50.08	Strong	0.43	1.47	h041.png	n/a	n/a	n/a
217.6	2.34	expectrating	7	low_cue	n/a	32.97	Strong	32.97	Strong	0.43	1.91	l053.png	n/a	n/a	n/a
254.29	1.52	expectrating	8	high_cue	n/a	59.63	Strong	59.63	Strong	0.35	1.17	h033.png	n/a	n/a	n/a
281.89	1.82	expectrating	9	high_cue	n/a	66.62	Very Strong	66.62	Very Strong	0.43	1.38	h017.png	n/a	n/a	n/a
311.4	1.36	expectrating	10	low_cue	n/a	65.39	Very Strong	65.39	Very Strong	0.05	1.31	l028.png	n/a	n/a	n/a
342.99	1.78	expectrating	11	high_cue	n/a	66.44	Very Strong	66.44	Very Strong	0.43	1.35	h054.png	n/a	n/a	n/a
376.21	1.38	expectrating	12	low_cue	n/a	40.55	Strong	40.55	Strong	0.35	1.03	l011.png	n/a	n/a	n/a
14.91	6.99	stimulus	1	high_cue	high_stim	n/a	n/a	n/a	n/a	n/a	n/a	44_150_R.jpg	diff	diff	True
43.9	6.99	stimulus	2	low_cue	high_stim	n/a	n/a	n/a	n/a	n/a	n/a	10_150_R.jpg	diff	diff	True
69.19	7.0	stimulus	3	low_cue	high_stim	n/a	n/a	n/a	n/a	n/a	n/a	23_150_R.jpg	diff	same	False
104.49	7.0	stimulus	4	high_cue	high_stim	n/a	n/a	n/a	n/a	n/a	n/a	33_150_R.jpg	diff	same	False
140.2	6.99	stimulus	5	low_cue	low_stim	n/a	n/a	n/a	n/a	n/a	n/a	22_50.jpg	same	same	True
191.09	7.0	stimulus	6	high_cue	low_stim	n/a	n/a	n/a	n/a	n/a	n/a	10_50.jpg	same	same	True
226.98	7.0	stimulus	7	low_cue	med_stim	n/a	n/a	n/a	n/a	n/a	n/a	9_100.jpg	same	diff	False
260.9	7.0	stimulus	8	high_cue	med_stim	n/a	n/a	n/a	n/a	n/a	n/a	33_100_R.jpg	diff	same	False
289.89	7.0	stimulus	9	high_cue	med_stim	n/a	n/a	n/a	n/a	n/a	n/a	10_100.jpg	same	diff	False
318.99	7.0	stimulus	10	low_cue	med_stim	n/a	n/a	n/a	n/a	n/a	n/a	17_100.jpg	same	same	True
354.9	6.99	stimulus	11	high_cue	low_stim	n/a	n/a	n/a	n/a	n/a	n/a	17_50_R.jpg	diff	same	False
382.99	7.0	stimulus	12	low_cue	low_stim	n/a	n/a	n/a	n/a	n/a	n/a	10_50_R.jpg	diff	same	False
23.89		outcomerating	1	high_cue	high_stim			47.93	Strong	0.87	2.68	task-cognitive_scale.png	n/a	n/a	n/a
55.19	2.12	outcomerating	2	low_cue	high_stim	37.83	Strong	37.83	Strong	0.48	1.64	task-cognitive_scale.png	n/a	n/a	n/a
81.7	2.82	outcomerating	3	low_cue	high_stim	23.89	Moderate	23.89	Moderate	0.8	2.02	task-cognitive_scale.png	n/a	n/a	n/a
115.39	2.9	outcomerating	4	high_cue	high_stim	29.22	Strong	29.22	Strong	0.62	2.28	task-cognitive_scale.png	n/a	n/a	n/a
151.49	2.65	outcomerating	5	low_cue	low_stim	4.15	Weak	4.15	Weak	0.8	1.85	task-cognitive_scale.png	n/a	n/a	n/a
207.79	2.38	outcomerating	6	high_cue	low_stim	35.18	Strong	35.18	Strong	0.92	1.47	task-cognitive_scale.png	n/a	n/a	n/a
240.59	2.32	outcomerating	7	low_cue	med_stim	41.19	Strong	41.19	Strong	0.73	1.58	task-cognitive_scale.png	n/a	n/a	n/a
270.1	2.81	outcomerating	8	high_cue	med_stim	56.12	Strong	56.12	Strong	0.85	1.96	task-cognitive_scale.png	n/a	n/a	n/a
299.3	2.15	outcomerating	9	high_cue	med_stim	24.92	Moderate	24.92	Moderate	0.38	1.77	task-cognitive_scale.png	n/a	n/a	n/a
331.49	2.73	outcomerating	10	low_cue	med_stim	8.29	Weak	8.29	Weak	0.57	2.17	task-cognitive_scale.png	n/a	n/a	n/a
364.69	3.0	outcomerating	11	high_cue	low_stim	13.68	Moderate	13.68	Moderate	0.75	2.25	task-cognitive_scale.png	n/a	n/a	n/a
395.0		outcomerating	12	low_cue	low_stim			49.06	Strong	3.68	0.18	task-cognitive_scale.png	n/a	n/a	n/a
