onset	duration	trial_type	trial_index	cue	stimulusintensity	rating_value	rating_glmslabel	rating_value_fillna	rating_glmslabel_fillna	rating_mouseonset	rating_mousedur	stim_file	correct_response	participant_response	response_accuracy
3.41	0.98	cue	1	low_cue	n/a	n/a	n/a	n/a	n/a	n/a	n/a	l019.png	n/a	n/a	n/a
41.6	0.98	cue	2	high_cue	n/a	n/a	n/a	n/a	n/a	n/a	n/a	h046.png	n/a	n/a	n/a
78.4	0.99	cue	3	low_cue	n/a	n/a	n/a	n/a	n/a	n/a	n/a	l022.png	n/a	n/a	n/a
105.89	0.99	cue	4	low_cue	n/a	n/a	n/a	n/a	n/a	n/a	n/a	l030.png	n/a	n/a	n/a
137.09	1.0	cue	5	high_cue	n/a	n/a	n/a	n/a	n/a	n/a	n/a	h055.png	n/a	n/a	n/a
169.0	0.98	cue	6	high_cue	n/a	n/a	n/a	n/a	n/a	n/a	n/a	h033.png	n/a	n/a	n/a
194.39	0.99	cue	7	high_cue	n/a	n/a	n/a	n/a	n/a	n/a	n/a	h018.png	n/a	n/a	n/a
234.79	0.99	cue	8	low_cue	n/a	n/a	n/a	n/a	n/a	n/a	n/a	l013.png	n/a	n/a	n/a
271.81	0.98	cue	9	low_cue	n/a	n/a	n/a	n/a	n/a	n/a	n/a	l029.png	n/a	n/a	n/a
299.9	0.99	cue	10	low_cue	n/a	n/a	n/a	n/a	n/a	n/a	n/a	l044.png	n/a	n/a	n/a
337.9	0.99	cue	11	high_cue	n/a	n/a	n/a	n/a	n/a	n/a	n/a	h039.png	n/a	n/a	n/a
362.59	1.0	cue	12	high_cue	n/a	n/a	n/a	n/a	n/a	n/a	n/a	h042.png	n/a	n/a	n/a
6.11	1.43	expectrating	1	low_cue	n/a	1.4	Barely detectable	1.4	Barely detectable	0.05	1.38	l019.png	n/a	n/a	n/a
44.71	2.62	expectrating	2	high_cue	n/a	36.69	Strong	36.69	Strong	0.85	1.77	h046.png	n/a	n/a	n/a
81.5	2.13	expectrating	3	low_cue	n/a	4.42	Weak	4.42	Weak	0.8	1.33	l022.png	n/a	n/a	n/a
107.4	1.45	expectrating	4	low_cue	n/a	0.46	No sensation	0.46	No sensation	0.42	1.04	l030.png	n/a	n/a	n/a
140.21	2.53	expectrating	5	high_cue	n/a	36.96	Strong	36.96	Strong	0.87	1.67	h055.png	n/a	n/a	n/a
171.0	1.93	expectrating	6	high_cue	n/a	53.75	Strong	53.75	Strong	0.4	1.53	h033.png	n/a	n/a	n/a
196.4	1.52	expectrating	7	high_cue	n/a	31.83	Strong	31.83	Strong	0.42	1.11	h018.png	n/a	n/a	n/a
237.31	1.67	expectrating	8	low_cue	n/a	0.48	No sensation	0.48	No sensation	0.45	1.22	l013.png	n/a	n/a	n/a
274.91	1.62	expectrating	9	low_cue	n/a	3.92	Weak	3.92	Weak	0.27	1.35	l029.png	n/a	n/a	n/a
301.8	2.15	expectrating	10	low_cue	n/a	8.1	Weak	8.1	Weak	0.13	2.02	l044.png	n/a	n/a	n/a
340.62	2.4	expectrating	11	high_cue	n/a	58.6	Strong	58.6	Strong	0.73	1.67	h039.png	n/a	n/a	n/a
364.81	1.85	expectrating	12	high_cue	n/a	24.1	Moderate	24.1	Moderate	0.72	1.13	h042.png	n/a	n/a	n/a
18.51	6.99	stimulus	1	low_cue	high_stim	n/a	n/a	n/a	n/a	n/a	n/a	47_150.jpg	same	same	True
55.21	6.99	stimulus	2	high_cue	med_stim	n/a	n/a	n/a	n/a	n/a	n/a	44_100.jpg	same	same	True
88.0	7.0	stimulus	3	low_cue	low_stim	n/a	n/a	n/a	n/a	n/a	n/a	10_50.jpg	same	same	True
114.2	7.0	stimulus	4	low_cue	low_stim	n/a	n/a	n/a	n/a	n/a	n/a	5_50_R.jpg	diff	diff	True
149.89	7.0	stimulus	5	high_cue	low_stim	n/a	n/a	n/a	n/a	n/a	n/a	11_50_R.jpg	diff	diff	True
177.51	7.0	stimulus	6	high_cue	med_stim	n/a	n/a	n/a	n/a	n/a	n/a	10_100_R.jpg	diff	diff	True
209.4	7.0	stimulus	7	high_cue	low_stim	n/a	n/a	n/a	n/a	n/a	n/a	43_50_R.jpg	diff	diff	True
251.3	7.0	stimulus	8	low_cue	high_stim	n/a	n/a	n/a	n/a	n/a	n/a	35_150_R.jpg	diff	diff	True
286.6	7.0	stimulus	9	low_cue	med_stim	n/a	n/a	n/a	n/a	n/a	n/a	18_100.jpg	same	same	True
315.51	6.99	stimulus	10	low_cue	med_stim	n/a	n/a	n/a	n/a	n/a	n/a	29_100_R.jpg	diff	diff	True
348.0	7.0	stimulus	11	high_cue	high_stim	n/a	n/a	n/a	n/a	n/a	n/a	18_150_R.jpg	diff		False
378.5	7.0	stimulus	12	high_cue	high_stim	n/a	n/a	n/a	n/a	n/a	n/a	29_150.jpg	same	same	True
32.6	3.42	outcomerating	1	low_cue	high_stim	25.02	Moderate	25.02	Moderate	1.12	2.3	task-cognitive_scale.png	n/a	n/a	n/a
69.3		outcomerating	2	high_cue	med_stim							task-cognitive_scale.png	n/a	n/a	n/a
97.81	3.25	outcomerating	3	low_cue	low_stim	3.91	Weak	3.91	Weak	2.12	1.13	task-cognitive_scale.png	n/a	n/a	n/a
128.0	3.27	outcomerating	4	low_cue	low_stim	4.84	Weak	4.84	Weak	0.68	2.58	task-cognitive_scale.png	n/a	n/a	n/a
159.9	1.69	outcomerating	5	high_cue	low_stim	47.43	Strong	47.43	Strong	0.75	0.94	task-cognitive_scale.png	n/a	n/a	n/a
187.31		outcomerating	6	high_cue	med_stim			17.85	Moderate	2.93	1.0	task-cognitive_scale.png	n/a	n/a	n/a
222.31	3.9	outcomerating	7	high_cue	low_stim	38.77	Strong	38.77	Strong	2.92	0.98	task-cognitive_scale.png	n/a	n/a	n/a
262.7	3.67	outcomerating	8	low_cue	high_stim	11.36	Moderate	11.36	Moderate	2.53	1.13	task-cognitive_scale.png	n/a	n/a	n/a
294.4	2.29	outcomerating	9	low_cue	med_stim	14.93	Moderate	14.93	Moderate	0.98	1.3	task-cognitive_scale.png	n/a	n/a	n/a
326.11	3.31	outcomerating	10	low_cue	med_stim	40.78	Strong	40.78	Strong	0.9	2.41	task-cognitive_scale.png	n/a	n/a	n/a
355.5	3.47	outcomerating	11	high_cue	high_stim	31.01	Strong	31.01	Strong	0.77	2.7	task-cognitive_scale.png	n/a	n/a	n/a
394.6	2.82	outcomerating	12	high_cue	high_stim	34.01	Strong	34.01	Strong	0.77	2.05	task-cognitive_scale.png	n/a	n/a	n/a
