onset	duration	trial_type	trial_index	cue	stimulusintensity	rating_value	rating_glmslabel	rating_value_fillna	rating_glmslabel_fillna	rating_mouseonset	rating_mousedur	stim_file
5.0	0.98	cue	1	high_cue	n/a	n/a	n/a	n/a	n/a	n/a	n/a	h048.png
39.6	0.99	cue	2	high_cue	n/a	n/a	n/a	n/a	n/a	n/a	n/a	h028.png
72.49	0.99	cue	3	high_cue	n/a	n/a	n/a	n/a	n/a	n/a	n/a	h016.png
105.31	0.98	cue	4	low_cue	n/a	n/a	n/a	n/a	n/a	n/a	n/a	l031.png
129.4	0.99	cue	5	high_cue	n/a	n/a	n/a	n/a	n/a	n/a	n/a	h035.png
167.9	0.99	cue	6	low_cue	n/a	n/a	n/a	n/a	n/a	n/a	n/a	l001.png
200.49	0.99	cue	7	high_cue	n/a	n/a	n/a	n/a	n/a	n/a	n/a	h023.png
237.0	0.98	cue	8	high_cue	n/a	n/a	n/a	n/a	n/a	n/a	n/a	h019.png
268.5	0.99	cue	9	low_cue	n/a	n/a	n/a	n/a	n/a	n/a	n/a	l050.png
296.39	0.99	cue	10	low_cue	n/a	n/a	n/a	n/a	n/a	n/a	n/a	l033.png
330.69	1.0	cue	11	low_cue	n/a	n/a	n/a	n/a	n/a	n/a	n/a	l021.png
372.0	0.98	cue	12	low_cue	n/a	n/a	n/a	n/a	n/a	n/a	n/a	l018.png
7.24	3.84	expectrating	1	high_cue	n/a	70.25	Very Strong	70.25	Very Strong	0.2	3.64	h048.png
42.8	2.64	expectrating	2	high_cue	n/a	45.33	Strong	45.33	Strong	0.95	1.69	h028.png
74.51	2.92	expectrating	3	high_cue	n/a	41.75	Strong	41.75	Strong	0.55	2.37	h016.png
107.31	2.28	expectrating	4	low_cue	n/a	0.93	No sensation	0.93	No sensation	0.9	1.38	l031.png
133.3	2.16	expectrating	5	high_cue	n/a	29.66	Strong	29.66	Strong	0.55	1.61	h035.png
171.1	1.96	expectrating	6	low_cue	n/a	6.26	Weak	6.26	Weak	0.6	1.36	l001.png
202.51	2.17	expectrating	7	high_cue	n/a	64.68	Very Strong	64.68	Very Strong	0.5	1.67	h023.png
240.21	2.95	expectrating	8	high_cue	n/a	100.2	Strongest sensation of any kind	100.2	Strongest sensation of any kind	1.03	1.92	h019.png
271.7	2.82	expectrating	9	low_cue	n/a	11.08	Moderate	11.08	Moderate	0.45	2.37	l050.png
298.29	3.2	expectrating	10	low_cue	n/a	1.04	Barely detectable	1.04	Barely detectable	1.05	2.15	l033.png
332.41	1.52	expectrating	11	low_cue	n/a	0.0		0.0		0.48	1.03	l021.png
373.61	3.08	expectrating	12	low_cue	n/a	2.34	Barely detectable	2.34	Barely detectable	0.73	2.35	l018.png
19.19	7.0	stimulus	1	high_cue	low_stim	n/a	n/a	n/a	n/a	n/a	n/a	ak064t1afunaff_L.mp4
50.49	7.02	stimulus	2	high_cue	low_stim	n/a	n/a	n/a	n/a	n/a	n/a	vw121t1aeaff_L.mp4
82.19	7.01	stimulus	3	high_cue	med_stim	n/a	n/a	n/a	n/a	n/a	n/a	jh123t2aaaff_M.mp4
114.99	7.01	stimulus	4	low_cue	med_stim	n/a	n/a	n/a	n/a	n/a	n/a	dn124t1aeunaff_M.mp4
150.89	7.0	stimulus	5	high_cue	high_stim	n/a	n/a	n/a	n/a	n/a	n/a	ch092t2aiaff_H.mp4
182.29	7.02	stimulus	6	low_cue	high_stim	n/a	n/a	n/a	n/a	n/a	n/a	dn124t1aiaff_H.mp4
214.89	7.01	stimulus	7	high_cue	high_stim	n/a	n/a	n/a	n/a	n/a	n/a	kz120t2aaaff_H.mp4
251.39	7.01	stimulus	8	high_cue	med_stim	n/a	n/a	n/a	n/a	n/a	n/a	ch092t2aaaff_M.mp4
280.69	7.0	stimulus	9	low_cue	low_stim	n/a	n/a	n/a	n/a	n/a	n/a	ch092t2aeaff_L.mp4
308.69	7.01	stimulus	10	low_cue	high_stim	n/a	n/a	n/a	n/a	n/a	n/a	ak064t1aaaff_H.mp4
341.99	7.01	stimulus	11	low_cue	low_stim	n/a	n/a	n/a	n/a	n/a	n/a	jh123t1aaunaff_L.mp4
383.19	7.01	stimulus	12	low_cue	med_stim	n/a	n/a	n/a	n/a	n/a	n/a	kz120t2aeaff_M.mp4
27.41	3.45	outcomerating	1	high_cue	low_stim	30.68	Strong	30.68	Strong	1.35	2.1	task-vicarious_scale.png
61.82	2.77	outcomerating	2	high_cue	low_stim	16.68	Moderate	16.68	Moderate	0.77	2.0	task-vicarious_scale.png
93.12	3.7	outcomerating	3	high_cue	med_stim	19.16	Moderate	19.16	Moderate	0.87	2.84	task-vicarious_scale.png
123.21	2.35	outcomerating	4	low_cue	med_stim	10.39	Moderate	10.39	Moderate	0.6	1.75	task-vicarious_scale.png
163.11		outcomerating	5	high_cue	high_stim			29.54	Strong	0.7	2.97	task-vicarious_scale.png
191.1	3.55	outcomerating	6	low_cue	high_stim	110.61	Strongest sensation of any kind	110.61	Strongest sensation of any kind	0.93	2.62	task-vicarious_scale.png
226.7	2.79	outcomerating	7	high_cue	high_stim	122.13	Strongest sensation of any kind	122.13	Strongest sensation of any kind	0.9	1.89	task-vicarious_scale.png
262.71	2.78	outcomerating	8	high_cue	med_stim	26.77	Moderate	26.77	Moderate	1.3	1.48	task-vicarious_scale.png
288.91	1.7	outcomerating	9	low_cue	low_stim	0.0		0.0		0.75	0.95	task-vicarious_scale.png
320.0	2.82	outcomerating	10	low_cue	high_stim	151.98	Strongest sensation of any kind	151.98	Strongest sensation of any kind	1.48	1.34	task-vicarious_scale.png
365.8	1.9	outcomerating	11	low_cue	low_stim	2.07	Barely detectable	2.07	Barely detectable	0.82	1.09	task-vicarious_scale.png
395.21	1.65	outcomerating	12	low_cue	med_stim	0.92	No sensation	0.92	No sensation	0.68	0.97	task-vicarious_scale.png
