onset	duration	trial_type	trial_index	cue	stimulusintensity	rating_value	rating_glmslabel	rating_value_fillna	rating_glmslabel_fillna	rating_mouseonset	rating_mousedur	stim_file	correct_response	participant_response	response_accuracy
10.98	0.99	cue	1	low_cue	n/a	n/a	n/a	n/a	n/a	n/a	n/a	l053.png	n/a	n/a	n/a
51.48	0.99	cue	2	low_cue	n/a	n/a	n/a	n/a	n/a	n/a	n/a	l037.png	n/a	n/a	n/a
82.99	0.98	cue	3	high_cue	n/a	n/a	n/a	n/a	n/a	n/a	n/a	h015.png	n/a	n/a	n/a
117.19	0.99	cue	4	high_cue	n/a	n/a	n/a	n/a	n/a	n/a	n/a	h050.png	n/a	n/a	n/a
150.48	0.99	cue	5	high_cue	n/a	n/a	n/a	n/a	n/a	n/a	n/a	h009.png	n/a	n/a	n/a
185.08	0.99	cue	6	low_cue	n/a	n/a	n/a	n/a	n/a	n/a	n/a	l012.png	n/a	n/a	n/a
213.19	0.98	cue	7	low_cue	n/a	n/a	n/a	n/a	n/a	n/a	n/a	l046.png	n/a	n/a	n/a
244.28	0.99	cue	8	high_cue	n/a	n/a	n/a	n/a	n/a	n/a	n/a	h032.png	n/a	n/a	n/a
270.38	0.99	cue	9	high_cue	n/a	n/a	n/a	n/a	n/a	n/a	n/a	h011.png	n/a	n/a	n/a
304.09	0.98	cue	10	low_cue	n/a	n/a	n/a	n/a	n/a	n/a	n/a	l050.png	n/a	n/a	n/a
338.09	0.99	cue	11	low_cue	n/a	n/a	n/a	n/a	n/a	n/a	n/a	l021.png	n/a	n/a	n/a
376.08	0.99	cue	12	high_cue	n/a	n/a	n/a	n/a	n/a	n/a	n/a	h017.png	n/a	n/a	n/a
14.31	2.52	expectrating	1	low_cue	n/a	24.81	Moderate	24.81	Moderate	0.05	2.47	l053.png	n/a	n/a	n/a
53.7	1.48	expectrating	2	low_cue	n/a	0.94	No sensation	0.94	No sensation	0.4	1.08	l037.png	n/a	n/a	n/a
85.79	2.53	expectrating	3	high_cue	n/a	0.0		0.0		0.43	2.1	h015.png	n/a	n/a	n/a
119.29	2.2	expectrating	4	high_cue	n/a	18.73	Moderate	18.73	Moderate	0.05	2.15	h050.png	n/a	n/a	n/a
152.68	1.13	expectrating	5	high_cue	n/a	37.65	Strong	37.65	Strong	0.17	0.96	h009.png	n/a	n/a	n/a
187.08	2.13	expectrating	6	low_cue	n/a	19.26	Moderate	19.26	Moderate	0.2	1.93	l012.png	n/a	n/a	n/a
216.49	2.17	expectrating	7	low_cue	n/a	16.63	Moderate	16.63	Moderate	0.05	2.12	l046.png	n/a	n/a	n/a
247.29		expectrating	8	high_cue	n/a			11.63	Moderate	0.37	3.47	h032.png	n/a	n/a	n/a
272.4	1.85	expectrating	9	high_cue	n/a	3.68	Weak	3.68	Weak	0.37	1.48	h011.png	n/a	n/a	n/a
306.29	2.64	expectrating	10	low_cue	n/a	26.15	Moderate	26.15	Moderate	0.05	2.59	l050.png	n/a	n/a	n/a
340.29	1.16	expectrating	11	low_cue	n/a	15.85	Moderate	15.85	Moderate	0.37	0.79	l021.png	n/a	n/a	n/a
378.89	1.47	expectrating	12	high_cue	n/a	22.62	Moderate	22.62	Moderate	0.05	1.42	h017.png	n/a	n/a	n/a
32.49	7.0	stimulus	1	low_cue	med_stim	n/a	n/a	n/a	n/a	n/a	n/a	43_100.jpg	same	same	True
62.38	7.0	stimulus	2	low_cue	high_stim	n/a	n/a	n/a	n/a	n/a	n/a	18_150.jpg	same	same	True
92.49	6.99	stimulus	3	high_cue	low_stim	n/a	n/a	n/a	n/a	n/a	n/a	35_50.jpg	same	same	True
132.79	6.99	stimulus	4	high_cue	med_stim	n/a	n/a	n/a	n/a	n/a	n/a	5_100.jpg	same	diff	False
170.89	7.0	stimulus	5	high_cue	high_stim	n/a	n/a	n/a	n/a	n/a	n/a	11_150_R.jpg	diff	diff	True
195.58	7.0	stimulus	6	low_cue	high_stim	n/a	n/a	n/a	n/a	n/a	n/a	29_150_R.jpg	diff	diff	True
224.99	6.99	stimulus	7	low_cue	low_stim	n/a	n/a	n/a	n/a	n/a	n/a	44_50_R.jpg	diff	diff	True
253.99	7.0	stimulus	8	high_cue	high_stim	n/a	n/a	n/a	n/a	n/a	n/a	47_150_R.jpg	diff	same	False
281.68	7.0	stimulus	9	high_cue	low_stim	n/a	n/a	n/a	n/a	n/a	n/a	44_50.jpg	same		False
313.58	7.0	stimulus	10	low_cue	med_stim	n/a	n/a	n/a	n/a	n/a	n/a	44_100_R.jpg	diff	same	False
352.19	6.99	stimulus	11	low_cue	low_stim	n/a	n/a	n/a	n/a	n/a	n/a	29_50_R.jpg	diff	same	False
387.39	7.0	stimulus	12	high_cue	med_stim	n/a	n/a	n/a	n/a	n/a	n/a	42_100.jpg	same	diff	False
45.29	2.92	outcomerating	1	low_cue	med_stim	4.15	Weak	4.15	Weak	0.68	2.23	task-cognitive_scale.png	n/a	n/a	n/a
75.19	1.72	outcomerating	2	low_cue	high_stim	1.16	Barely detectable	1.16	Barely detectable	0.68	1.04	task-cognitive_scale.png	n/a	n/a	n/a
100.38	1.52	outcomerating	3	high_cue	low_stim	0.0		0.0		0.68	0.83	task-cognitive_scale.png	n/a	n/a	n/a
145.6	3.25	outcomerating	4	high_cue	med_stim	20.39	Moderate	20.39	Moderate	0.73	2.52	task-cognitive_scale.png	n/a	n/a	n/a
179.59	2.48	outcomerating	5	high_cue	high_stim	9.74	Weak	9.74	Weak	0.65	1.83	task-cognitive_scale.png	n/a	n/a	n/a
204.29	3.11	outcomerating	6	low_cue	high_stim	0.0		0.0		0.87	2.24	task-cognitive_scale.png	n/a	n/a	n/a
238.08	2.35	outcomerating	7	low_cue	low_stim	2.54	Barely detectable	2.54	Barely detectable	0.93	1.42	task-cognitive_scale.png	n/a	n/a	n/a
262.99	2.23	outcomerating	8	high_cue	high_stim	37.19	Strong	37.19	Strong	0.08	2.15	task-cognitive_scale.png	n/a	n/a	n/a
298.59	2.47	outcomerating	9	high_cue	low_stim	52.25	Strong	52.25	Strong	0.68	1.79	task-cognitive_scale.png	n/a	n/a	n/a
329.78	2.93	outcomerating	10	low_cue	med_stim	59.08	Strong	59.08	Strong	0.83	2.1	task-cognitive_scale.png	n/a	n/a	n/a
363.9	1.62	outcomerating	11	low_cue	low_stim	61.17	Strong	61.17	Strong	0.62	1.0	task-cognitive_scale.png	n/a	n/a	n/a
394.99	2.94	outcomerating	12	high_cue	med_stim	25.31	Moderate	25.31	Moderate	0.68	2.25	task-cognitive_scale.png	n/a	n/a	n/a
