onset	duration	trial_type	trial_index	cue	stimulusintensity	rating_value	rating_glmslabel	rating_value_fillna	rating_glmslabel_fillna	rating_mouseonset	rating_mousedur	stim_file
10.59	1.0	cue	1	low_cue	n/a	n/a	n/a	n/a	n/a	n/a	n/a	l009.png
35.7	0.99	cue	2	low_cue	n/a	n/a	n/a	n/a	n/a	n/a	n/a	l046.png
61.29	0.99	cue	3	low_cue	n/a	n/a	n/a	n/a	n/a	n/a	n/a	l033.png
91.3	0.98	cue	4	low_cue	n/a	n/a	n/a	n/a	n/a	n/a	n/a	l027.png
120.0	0.99	cue	5	high_cue	n/a	n/a	n/a	n/a	n/a	n/a	n/a	h051.png
153.89	0.99	cue	6	high_cue	n/a	n/a	n/a	n/a	n/a	n/a	n/a	h045.png
194.19	0.99	cue	7	high_cue	n/a	n/a	n/a	n/a	n/a	n/a	n/a	h041.png
219.2	0.98	cue	8	high_cue	n/a	n/a	n/a	n/a	n/a	n/a	n/a	h014.png
251.4	0.99	cue	9	high_cue	n/a	n/a	n/a	n/a	n/a	n/a	n/a	h043.png
285.79	0.99	cue	10	high_cue	n/a	n/a	n/a	n/a	n/a	n/a	n/a	h013.png
326.19	0.99	cue	11	low_cue	n/a	n/a	n/a	n/a	n/a	n/a	n/a	l040.png
366.41	0.98	cue	12	low_cue	n/a	n/a	n/a	n/a	n/a	n/a	n/a	l051.png
12.31	1.92	expectrating	1	low_cue	n/a	5.38	Weak	5.38	Weak	0.43	1.48	l009.png
38.0	1.52	expectrating	2	low_cue	n/a	19.17	Moderate	19.17	Moderate	0.05	1.47	l046.png
64.21	2.08	expectrating	3	low_cue	n/a	3.91	Weak	3.91	Weak	0.92	1.17	l033.png
93.7	1.37	expectrating	4	low_cue	n/a	4.22	Weak	4.22	Weak	0.05	1.32	l027.png
122.92	1.62	expectrating	5	high_cue	n/a	68.2	Very Strong	68.2	Very Strong	0.3	1.32	h051.png
155.79	2.81	expectrating	6	high_cue	n/a	41.88	Strong	41.88	Strong	0.45	2.36	h045.png
196.99	3.48	expectrating	7	high_cue	n/a	63.76	Strong	63.76	Strong	0.18	3.29	h041.png
222.1	1.77	expectrating	8	high_cue	n/a	32.67	Strong	32.67	Strong	0.1	1.67	h014.png
253.8	1.87	expectrating	9	high_cue	n/a	75.68	Very Strong	75.68	Very Strong	0.78	1.09	h043.png
288.99	1.63	expectrating	10	high_cue	n/a	61.41	Strong	61.41	Strong	0.22	1.41	h013.png
328.11	2.8	expectrating	11	low_cue	n/a	13.2	Moderate	13.2	Moderate	0.25	2.55	l040.png
369.21		expectrating	12	low_cue	n/a			11.66	Moderate	1.15	3.95	l051.png
23.09	7.01	stimulus	1	low_cue	low_stim	n/a	n/a	n/a	n/a	n/a	n/a	jl047t1aaunaff_L.mp4
45.79	7.02	stimulus	2	low_cue	med_stim	n/a	n/a	n/a	n/a	n/a	n/a	bn080t1aeaff_M.mp4
74.19	7.01	stimulus	3	low_cue	low_stim	n/a	n/a	n/a	n/a	n/a	n/a	jh043t2aaunaff_L.mp4
101.79	7.0	stimulus	4	low_cue	high_stim	n/a	n/a	n/a	n/a	n/a	n/a	mg066t1aaaff_H.mp4
133.79	7.01	stimulus	5	high_cue	med_stim	n/a	n/a	n/a	n/a	n/a	n/a	ib109t1afaff_M.mp4
169.79	7.01	stimulus	6	high_cue	high_stim	n/a	n/a	n/a	n/a	n/a	n/a	jh043t2aeaff_H.mp4
206.19	7.01	stimulus	7	high_cue	med_stim	n/a	n/a	n/a	n/a	n/a	n/a	vw121t1aiaff_M.mp4
234.49	7.0	stimulus	8	high_cue	low_stim	n/a	n/a	n/a	n/a	n/a	n/a	bg096t2afunaff_L.mp4
266.69	7.0	stimulus	9	high_cue	low_stim	n/a	n/a	n/a	n/a	n/a	n/a	bn080t1afunaff_L.mp4
297.99	7.01	stimulus	10	high_cue	high_stim	n/a	n/a	n/a	n/a	n/a	n/a	bn080t1afaff_H.mp4
342.39	7.01	stimulus	11	low_cue	med_stim	n/a	n/a	n/a	n/a	n/a	n/a	mg066t2aaunaff_M.mp4
375.79	7.01	stimulus	12	low_cue	high_stim	n/a	n/a	n/a	n/a	n/a	n/a	ib109t1aiaff_H.mp4
31.11	2.12	outcomerating	1	low_cue	low_stim	25.43	Moderate	25.43	Moderate	0.53	1.59	task-vicarious_scale.png
56.31	1.9	outcomerating	2	low_cue	med_stim	61.79	Strong	61.79	Strong	0.42	1.48	task-vicarious_scale.png
86.3	1.98	outcomerating	3	low_cue	low_stim	63.64	Strong	63.64	Strong	0.45	1.53	task-vicarious_scale.png
112.31	2.27	outcomerating	4	low_cue	high_stim	55.29	Strong	55.29	Strong	0.32	1.96	task-vicarious_scale.png
142.81	2.27	outcomerating	5	high_cue	med_stim	8.3	Weak	8.3	Weak	0.4	1.87	task-vicarious_scale.png
184.2	1.93	outcomerating	6	high_cue	high_stim	80.09	Very Strong	80.09	Very Strong	0.6	1.33	task-vicarious_scale.png
214.22	2.77	outcomerating	7	high_cue	med_stim	67.9	Very Strong	67.9	Very Strong	1.1	1.67	task-vicarious_scale.png
242.71	2.32	outcomerating	8	high_cue	low_stim	56.5	Strong	56.5	Strong	0.05	2.27	task-vicarious_scale.png
280.81	2.65	outcomerating	9	high_cue	low_stim	8.07	Weak	8.07	Weak	0.57	2.08	task-vicarious_scale.png
311.3	2.52	outcomerating	10	high_cue	high_stim	114.68	Strongest sensation of any kind	114.68	Strongest sensation of any kind	0.55	1.97	task-vicarious_scale.png
353.3	2.82	outcomerating	11	low_cue	med_stim	8.52	Weak	8.52	Weak	0.25	2.57	task-vicarious_scale.png
394.8	2.55	outcomerating	12	low_cue	high_stim	36.92	Strong	36.92	Strong	0.63	1.92	task-vicarious_scale.png
