onset	duration	trial_type	trial_index	cue	stimulusintensity	rating_value	rating_glmslabel	rating_value_fillna	rating_glmslabel_fillna	rating_mouseonset	rating_mousedur	stim_file	onset_ttl1	onset_ttl2	onset_ttl3	onset_ttl4	stimulus_delivery_success
13.4	0.98	cue	1	low_cue	n/a	n/a	n/a	n/a	n/a	n/a	n/a	l049.png	n/a	n/a	n/a	n/a	n/a
43.0	1.0	cue	2	low_cue	n/a	n/a	n/a	n/a	n/a	n/a	n/a	l032.png	n/a	n/a	n/a	n/a	n/a
78.69	1.0	cue	3	high_cue	n/a	n/a	n/a	n/a	n/a	n/a	n/a	h030.png	n/a	n/a	n/a	n/a	n/a
113.89	1.0	cue	4	low_cue	n/a	n/a	n/a	n/a	n/a	n/a	n/a	l004.png	n/a	n/a	n/a	n/a	n/a
151.7	0.98	cue	5	high_cue	n/a	n/a	n/a	n/a	n/a	n/a	n/a	h049.png	n/a	n/a	n/a	n/a	n/a
178.8	1.0	cue	6	low_cue	n/a	n/a	n/a	n/a	n/a	n/a	n/a	l024.png	n/a	n/a	n/a	n/a	n/a
207.19	1.0	cue	7	low_cue	n/a	n/a	n/a	n/a	n/a	n/a	n/a	l050.png	n/a	n/a	n/a	n/a	n/a
237.59	1.0	cue	8	high_cue	n/a	n/a	n/a	n/a	n/a	n/a	n/a	h047.png	n/a	n/a	n/a	n/a	n/a
268.3	1.0	cue	9	high_cue	n/a	n/a	n/a	n/a	n/a	n/a	n/a	h054.png	n/a	n/a	n/a	n/a	n/a
300.09	1.0	cue	10	high_cue	n/a	n/a	n/a	n/a	n/a	n/a	n/a	h027.png	n/a	n/a	n/a	n/a	n/a
333.59	1.0	cue	11	high_cue	n/a	n/a	n/a	n/a	n/a	n/a	n/a	h046.png	n/a	n/a	n/a	n/a	n/a
367.0	0.98	cue	12	low_cue	n/a	n/a	n/a	n/a	n/a	n/a	n/a	l015.png	n/a	n/a	n/a	n/a	n/a
15.2	2.43	expectrating	1	low_cue	n/a	25.83	Moderate	25.83	Moderate	0.57	1.87	l049.png	n/a	n/a	n/a	n/a	n/a
46.0	2.47	expectrating	2	low_cue	n/a	19.76	Moderate	19.76	Moderate	0.3	2.17	l032.png	n/a	n/a	n/a	n/a	n/a
81.69	1.42	expectrating	3	high_cue	n/a	41.08	Strong	41.08	Strong	0.3	1.12	h030.png	n/a	n/a	n/a	n/a	n/a
115.79	1.76	expectrating	4	low_cue	n/a	7.44	Weak	7.44	Weak	0.33	1.42	l004.png	n/a	n/a	n/a	n/a	n/a
153.4	2.59	expectrating	5	high_cue	n/a	25.43	Moderate	25.43	Moderate	0.42	2.18	h049.png	n/a	n/a	n/a	n/a	n/a
181.9	3.03	expectrating	6	low_cue	n/a	16.83	Moderate	16.83	Moderate	0.12	2.92	l024.png	n/a	n/a	n/a	n/a	n/a
210.19	2.17	expectrating	7	low_cue	n/a	16.98	Moderate	16.98	Moderate	0.13	2.04	l050.png	n/a	n/a	n/a	n/a	n/a
239.3	1.5	expectrating	8	high_cue	n/a	51.38	Strong	51.38	Strong	0.35	1.15	h047.png	n/a	n/a	n/a	n/a	n/a
271.3	1.3	expectrating	9	high_cue	n/a	50.73	Strong	50.73	Strong	0.37	0.93	h054.png	n/a	n/a	n/a	n/a	n/a
302.89	2.4	expectrating	10	high_cue	n/a	50.43	Strong	50.43	Strong	0.53	1.87	h027.png	n/a	n/a	n/a	n/a	n/a
336.49	1.24	expectrating	11	high_cue	n/a	47.0	Strong	47.0	Strong	0.18	1.06	h046.png	n/a	n/a	n/a	n/a	n/a
368.9	1.05	expectrating	12	low_cue	n/a	7.38	Weak	7.38	Weak	0.32	0.73	l015.png	n/a	n/a	n/a	n/a	n/a
23.96	12.47	stimulus	1	low_cue	low_stim	n/a	n/a	n/a	n/a	n/a	n/a	48c	23.55	27.31	32.31	36.03	success
54.74	13.04	stimulus	2	low_cue	med_stim	n/a	n/a	n/a	n/a	n/a	n/a	49c	54.34	58.32	63.33	67.38	success
86.53	13.07	stimulus	3	high_cue	med_stim	n/a	n/a	n/a	n/a	n/a	n/a	49c	86.13	90.16	95.16	99.2	success
123.21	13.61	stimulus	4	low_cue	high_stim	n/a	n/a	n/a	n/a	n/a	n/a	50c	122.82	127.13	132.13	136.44	success
159.92	13.04	stimulus	5	high_cue	med_stim	n/a	n/a	n/a	n/a	n/a	n/a	49c	159.53	163.53	168.53	172.57	success
188.12	13.57	stimulus	6	low_cue	high_stim	n/a	n/a	n/a	n/a	n/a	n/a	50c	187.74	192.01	197.02	201.31	success
219.52	12.54	stimulus	7	low_cue	low_stim	n/a	n/a	n/a	n/a	n/a	n/a	48c	219.13	222.84	227.84	231.67	success
248.23	13.66	stimulus	8	high_cue	high_stim	n/a	n/a	n/a	n/a	n/a	n/a	50c	247.84	252.18	257.18	261.5	success
277.54	13.51	stimulus	9	high_cue	high_stim	n/a	n/a	n/a	n/a	n/a	n/a	50c	277.14	281.37	286.37	290.65	success
317.53	12.61	stimulus	10	high_cue	low_stim	n/a	n/a	n/a	n/a	n/a	n/a	48c	317.13	320.92	325.92	329.74	success
345.43	12.56	stimulus	11	high_cue	low_stim	n/a	n/a	n/a	n/a	n/a	n/a	48c	345.04	348.78	353.78	357.6	success
380.52	13.17	stimulus	12	low_cue	med_stim	n/a	n/a	n/a	n/a	n/a	n/a	49c	380.12	384.23	389.23	393.29	success
36.89	2.1	outcomerating	1	low_cue	low_stim	20.18	Moderate	20.18	Moderate	0.47	1.64	task-pain_scale.png	n/a	n/a	n/a	n/a	success
70.19	2.14	outcomerating	2	low_cue	med_stim	19.31	Moderate	19.31	Moderate	0.4	1.74	task-pain_scale.png	n/a	n/a	n/a	n/a	success
100.0	2.15	outcomerating	3	high_cue	med_stim	46.14	Strong	46.14	Strong	0.52	1.63	task-pain_scale.png	n/a	n/a	n/a	n/a	success
137.1	2.93	outcomerating	4	low_cue	high_stim	28.52	Moderate	28.52	Moderate	0.53	2.4	task-pain_scale.png	n/a	n/a	n/a	n/a	success
173.11	2.28	outcomerating	5	high_cue	med_stim	15.28	Moderate	15.28	Moderate	0.55	1.73	task-pain_scale.png	n/a	n/a	n/a	n/a	success
201.89	2.07	outcomerating	6	low_cue	high_stim	32.22	Strong	32.22	Strong	0.62	1.46	task-pain_scale.png	n/a	n/a	n/a	n/a	success
232.7	1.57	outcomerating	7	low_cue	low_stim	12.48	Moderate	12.48	Moderate	0.37	1.2	task-pain_scale.png	n/a	n/a	n/a	n/a	success
260.39	1.82	outcomerating	8	high_cue	high_stim	62.82	Strong	62.82	Strong	0.53	1.29	task-pain_scale.png	n/a	n/a	n/a	n/a	success
292.19	2.52	outcomerating	9	high_cue	high_stim	49.22	Strong	49.22	Strong	0.6	1.92	task-pain_scale.png	n/a	n/a	n/a	n/a	success
328.7	2.45	outcomerating	10	high_cue	low_stim	33.18	Strong	33.18	Strong	0.88	1.57	task-pain_scale.png	n/a	n/a	n/a	n/a	success
359.4	3.53	outcomerating	11	high_cue	low_stim	45.98	Strong	45.98	Strong	0.62	2.92	task-pain_scale.png	n/a	n/a	n/a	n/a	success
394.49	3.72	outcomerating	12	low_cue	med_stim	15.38	Moderate	15.38	Moderate	0.85	2.87	task-pain_scale.png	n/a	n/a	n/a	n/a	success
