onset	duration	trial_type	trial_index	cue	stimulusintensity	rating_value	rating_glmslabel	rating_value_fillna	rating_glmslabel_fillna	rating_mouseonset	rating_mousedur	stim_file	correct_response	participant_response	response_accuracy
9.79	0.99	cue	1	high_cue	n/a	n/a	n/a	n/a	n/a	n/a	n/a	h051.png	n/a	n/a	n/a
41.5	0.98	cue	2	high_cue	n/a	n/a	n/a	n/a	n/a	n/a	n/a	h023.png	n/a	n/a	n/a
67.39	0.99	cue	3	low_cue	n/a	n/a	n/a	n/a	n/a	n/a	n/a	l013.png	n/a	n/a	n/a
96.79	1.0	cue	4	high_cue	n/a	n/a	n/a	n/a	n/a	n/a	n/a	h006.png	n/a	n/a	n/a
128.4	0.98	cue	5	high_cue	n/a	n/a	n/a	n/a	n/a	n/a	n/a	h003.png	n/a	n/a	n/a
171.0	0.98	cue	6	low_cue	n/a	n/a	n/a	n/a	n/a	n/a	n/a	l012.png	n/a	n/a	n/a
198.29	0.99	cue	7	low_cue	n/a	n/a	n/a	n/a	n/a	n/a	n/a	l055.png	n/a	n/a	n/a
234.89	0.99	cue	8	low_cue	n/a	n/a	n/a	n/a	n/a	n/a	n/a	l005.png	n/a	n/a	n/a
262.2	0.98	cue	9	high_cue	n/a	n/a	n/a	n/a	n/a	n/a	n/a	h040.png	n/a	n/a	n/a
291.09	0.99	cue	10	low_cue	n/a	n/a	n/a	n/a	n/a	n/a	n/a	l019.png	n/a	n/a	n/a
336.59	0.99	cue	11	high_cue	n/a	n/a	n/a	n/a	n/a	n/a	n/a	h022.png	n/a	n/a	n/a
371.59	0.99	cue	12	low_cue	n/a	n/a	n/a	n/a	n/a	n/a	n/a	l035.png	n/a	n/a	n/a
12.52	2.77	expectrating	1	high_cue	n/a	67.13	Very Strong	67.13	Very Strong	0.62	2.16	h051.png	n/a	n/a	n/a
43.0	1.35	expectrating	2	high_cue	n/a	42.99	Strong	42.99	Strong	0.2	1.15	h023.png	n/a	n/a	n/a
69.51	2.32	expectrating	3	low_cue	n/a	0.92	No sensation	0.92	No sensation	0.1	2.22	l013.png	n/a	n/a	n/a
100.71	2.16	expectrating	4	high_cue	n/a	35.48	Strong	35.48	Strong	0.05	2.11	h006.png	n/a	n/a	n/a
132.3	3.88	expectrating	5	high_cue	n/a	29.24	Strong	29.24	Strong	0.42	3.47	h003.png	n/a	n/a	n/a
174.9	2.55	expectrating	6	low_cue	n/a	8.52	Weak	8.52	Weak	0.15	2.4	l012.png	n/a	n/a	n/a
199.79	2.17	expectrating	7	low_cue	n/a	4.82	Weak	4.82	Weak	0.1	2.07	l055.png	n/a	n/a	n/a
237.01	1.64	expectrating	8	low_cue	n/a	4.36	Weak	4.36	Weak	0.05	1.59	l005.png	n/a	n/a	n/a
264.9	1.9	expectrating	9	high_cue	n/a	22.83	Moderate	22.83	Moderate	0.5	1.4	h040.png	n/a	n/a	n/a
293.3	1.92	expectrating	10	low_cue	n/a	7.01	Weak	7.01	Weak	0.13	1.79	l019.png	n/a	n/a	n/a
338.3	2.4	expectrating	11	high_cue	n/a	19.84	Moderate	19.84	Moderate	0.37	2.04	h022.png	n/a	n/a	n/a
373.41	3.04	expectrating	12	low_cue	n/a	9.77	Weak	9.77	Weak	0.42	2.62	l035.png	n/a	n/a	n/a
24.21	6.99	stimulus	1	high_cue	med_stim	n/a	n/a	n/a	n/a	n/a	n/a	14_100.jpg	same	same	True
51.11	6.99	stimulus	2	high_cue	high_stim	n/a	n/a	n/a	n/a	n/a	n/a	28_150.jpg	same	same	True
77.7	7.0	stimulus	3	low_cue	high_stim	n/a	n/a	n/a	n/a	n/a	n/a	28_150_R.jpg	diff	diff	True
110.89	7.0	stimulus	4	high_cue	low_stim	n/a	n/a	n/a	n/a	n/a	n/a	44_50_R.jpg	diff	diff	True
147.01	6.99	stimulus	5	high_cue	med_stim	n/a	n/a	n/a	n/a	n/a	n/a	27_100.jpg	same	same	True
181.8	6.99	stimulus	6	low_cue	low_stim	n/a	n/a	n/a	n/a	n/a	n/a	22_50_R.jpg	diff	diff	True
210.1	7.0	stimulus	7	low_cue	med_stim	n/a	n/a	n/a	n/a	n/a	n/a	27_100_R.jpg	diff	diff	True
246.29	7.0	stimulus	8	low_cue	med_stim	n/a	n/a	n/a	n/a	n/a	n/a	28_100_R.jpg	diff	diff	True
274.21	6.99	stimulus	9	high_cue	high_stim	n/a	n/a	n/a	n/a	n/a	n/a	26_150.jpg	same	same	True
308.0	7.0	stimulus	10	low_cue	low_stim	n/a	n/a	n/a	n/a	n/a	n/a	27_50_R.jpg	diff	diff	True
354.0	7.0	stimulus	11	high_cue	low_stim	n/a	n/a	n/a	n/a	n/a	n/a	7_50_R.jpg	diff	diff	True
380.29	7.0	stimulus	12	low_cue	high_stim	n/a	n/a	n/a	n/a	n/a	n/a	19_150.jpg	same	same	True
33.0	1.77	outcomerating	1	high_cue	med_stim	34.52	Strong	34.52	Strong	0.47	1.3	task-cognitive_scale.png	n/a	n/a	n/a
59.51	2.31	outcomerating	2	high_cue	high_stim	39.36	Strong	39.36	Strong	0.45	1.86	task-cognitive_scale.png	n/a	n/a	n/a
87.5	2.64	outcomerating	3	low_cue	high_stim	0.0		0.0		0.77	1.87	task-cognitive_scale.png	n/a	n/a	n/a
119.3	1.72	outcomerating	4	high_cue	low_stim	5.32	Weak	5.32	Weak	0.45	1.27	task-cognitive_scale.png	n/a	n/a	n/a
156.81	3.74	outcomerating	5	high_cue	med_stim	32.95	Strong	32.95	Strong	0.72	3.02	task-cognitive_scale.png	n/a	n/a	n/a
191.71	1.87	outcomerating	6	low_cue	low_stim	11.63	Moderate	11.63	Moderate	0.82	1.06	task-cognitive_scale.png	n/a	n/a	n/a
228.9	2.33	outcomerating	7	low_cue	med_stim	11.13	Moderate	11.13	Moderate	0.48	1.85	task-cognitive_scale.png	n/a	n/a	n/a
256.2	1.87	outcomerating	8	low_cue	med_stim	4.15	Weak	4.15	Weak	0.38	1.48	task-cognitive_scale.png	n/a	n/a	n/a
285.79	2.4	outcomerating	9	high_cue	high_stim	25.02	Moderate	25.02	Moderate	0.43	1.97	task-cognitive_scale.png	n/a	n/a	n/a
323.01	2.62	outcomerating	10	low_cue	low_stim	1.85	Barely detectable	1.85	Barely detectable	0.4	2.22	task-cognitive_scale.png	n/a	n/a	n/a
367.11	1.89	outcomerating	11	high_cue	low_stim	17.71	Moderate	17.71	Moderate	0.4	1.49	task-cognitive_scale.png	n/a	n/a	n/a
394.8	2.2	outcomerating	12	low_cue	high_stim	9.27	Weak	9.27	Weak	0.5	1.7	task-cognitive_scale.png	n/a	n/a	n/a
