onset	duration	trial_type	trial_index	cue	stimulusintensity	rating_value	rating_glmslabel	rating_value_fillna	rating_glmslabel_fillna	rating_mouseonset	rating_mousedur	stim_file
5.68	0.99	cue	1	low_cue	n/a	n/a	n/a	n/a	n/a	n/a	n/a	l015.png
34.99	0.98	cue	2	high_cue	n/a	n/a	n/a	n/a	n/a	n/a	n/a	h026.png
62.69	0.99	cue	3	low_cue	n/a	n/a	n/a	n/a	n/a	n/a	n/a	l026.png
96.08	0.99	cue	4	high_cue	n/a	n/a	n/a	n/a	n/a	n/a	n/a	h025.png
131.6	0.98	cue	5	low_cue	n/a	n/a	n/a	n/a	n/a	n/a	n/a	l043.png
163.39	0.98	cue	6	low_cue	n/a	n/a	n/a	n/a	n/a	n/a	n/a	l017.png
193.39	0.99	cue	7	high_cue	n/a	n/a	n/a	n/a	n/a	n/a	n/a	h003.png
234.39	0.99	cue	8	low_cue	n/a	n/a	n/a	n/a	n/a	n/a	n/a	l002.png
259.09	0.98	cue	9	low_cue	n/a	n/a	n/a	n/a	n/a	n/a	n/a	l053.png
307.78	1.0	cue	10	high_cue	n/a	n/a	n/a	n/a	n/a	n/a	n/a	h014.png
340.69	0.98	cue	11	high_cue	n/a	n/a	n/a	n/a	n/a	n/a	n/a	h055.png
371.49	0.99	cue	12	high_cue	n/a	n/a	n/a	n/a	n/a	n/a	n/a	h038.png
9.0	2.23	expectrating	1	low_cue	n/a	26.67	Moderate	26.67	Moderate	0.62	1.62	l015.png
37.7	1.2	expectrating	2	high_cue	n/a	46.78	Strong	46.78	Strong	0.25	0.95	h026.png
65.89	3.02	expectrating	3	low_cue	n/a	9.95	Weak	9.95	Weak	1.2	1.82	l026.png
98.38	2.1	expectrating	4	high_cue	n/a	26.15	Moderate	26.15	Moderate	0.73	1.37	h025.png
134.3	2.5	expectrating	5	low_cue	n/a	9.5	Weak	9.5	Weak	1.08	1.42	l043.png
165.69	1.6	expectrating	6	low_cue	n/a	4.17	Weak	4.17	Weak	0.57	1.03	l017.png
194.99	2.79	expectrating	7	high_cue	n/a	19.24	Moderate	19.24	Moderate	0.98	1.81	h003.png
235.99	2.56	expectrating	8	low_cue	n/a	7.77	Weak	7.77	Weak	0.52	2.04	l002.png
261.0	2.05	expectrating	9	low_cue	n/a	4.38	Weak	4.38	Weak	0.63	1.42	l053.png
311.0	2.25	expectrating	10	high_cue	n/a	13.42	Moderate	13.42	Moderate	0.42	1.83	h014.png
342.59	2.89	expectrating	11	high_cue	n/a	10.86	Moderate	10.86	Moderate	0.47	2.42	h055.png
374.79	2.77	expectrating	12	high_cue	n/a	12.03	Moderate	12.03	Moderate	0.37	2.41	h038.png
19.38	7.01	stimulus	1	low_cue	med_stim	n/a	n/a	n/a	n/a	n/a	n/a	aa048t2afunaff_M.mp4
44.68	7.0	stimulus	2	high_cue	low_stim	n/a	n/a	n/a	n/a	n/a	n/a	mg066t2aeunaff_L.mp4
78.38	7.0	stimulus	3	low_cue	high_stim	n/a	n/a	n/a	n/a	n/a	n/a	ib109t1aiaff_H.mp4
106.58	7.01	stimulus	4	high_cue	med_stim	n/a	n/a	n/a	n/a	n/a	n/a	jk103t2aaunaff_M.mp4
142.98	7.0	stimulus	5	low_cue	med_stim	n/a	n/a	n/a	n/a	n/a	n/a	mg066t2aaunaff_M.mp4
180.78	7.01	stimulus	6	low_cue	high_stim	n/a	n/a	n/a	n/a	n/a	n/a	aa048t2aeaff_H.mp4
203.18	7.01	stimulus	7	high_cue	high_stim	n/a	n/a	n/a	n/a	n/a	n/a	jl047t1aiaff_H.mp4
243.88	7.01	stimulus	8	low_cue	low_stim	n/a	n/a	n/a	n/a	n/a	n/a	jk103t1aaunaff_L.mp4
276.08	7.01	stimulus	9	low_cue	low_stim	n/a	n/a	n/a	n/a	n/a	n/a	ib109t1aiunaff_L.mp4
318.88	7.01	stimulus	10	high_cue	low_stim	n/a	n/a	n/a	n/a	n/a	n/a	jl047t1aaunaff_L.mp4
355.28	7.0	stimulus	11	high_cue	med_stim	n/a	n/a	n/a	n/a	n/a	n/a	jy115t1aeaff_M.mp4
387.28	7.02	stimulus	12	high_cue	high_stim	n/a	n/a	n/a	n/a	n/a	n/a	tv095t1afaff_H.mp4
28.09	2.44	outcomerating	1	low_cue	med_stim	7.13	Weak	7.13	Weak	0.78	1.65	task-vicarious_scale.png
58.2	2.31	outcomerating	2	high_cue	low_stim	16.61	Moderate	16.61	Moderate	0.43	1.87	task-vicarious_scale.png
91.6	1.68	outcomerating	3	low_cue	high_stim	4.15	Weak	4.15	Weak	0.5	1.18	task-vicarious_scale.png
114.79	3.15	outcomerating	4	high_cue	med_stim	14.37	Moderate	14.37	Moderate	0.42	2.74	task-vicarious_scale.png
156.21	2.2	outcomerating	5	low_cue	med_stim	8.55	Weak	8.55	Weak	0.57	1.64	task-vicarious_scale.png
188.6	3.19	outcomerating	6	low_cue	high_stim	0.92	No sensation	0.92	No sensation	0.48	2.71	task-vicarious_scale.png
227.9	3.62	outcomerating	7	high_cue	high_stim	15.6	Moderate	15.6	Moderate	1.03	2.58	task-vicarious_scale.png
252.89	1.92	outcomerating	8	low_cue	low_stim	0.0		0.0		0.55	1.37	task-vicarious_scale.png
290.99	1.79	outcomerating	9	low_cue	low_stim	1.84	Barely detectable	1.84	Barely detectable	0.58	1.2	task-vicarious_scale.png
327.6	2.25	outcomerating	10	high_cue	low_stim	13.7	Moderate	13.7	Moderate	0.78	1.47	task-vicarious_scale.png
363.8	2.38	outcomerating	11	high_cue	med_stim	20.69	Moderate	20.69	Moderate	0.75	1.63	task-vicarious_scale.png
395.1	3.23	outcomerating	12	high_cue	high_stim	13.92	Moderate	13.92	Moderate	0.82	2.42	task-vicarious_scale.png
