onset	duration	trial_type	trial_index	cue	stimulusintensity	rating_value	rating_glmslabel	rating_value_fillna	rating_glmslabel_fillna	rating_mouseonset	rating_mousedur	stim_file	onset_ttl1	onset_ttl2	onset_ttl3	onset_ttl4	stimulus_delivery_success
10.12	1.0	cue	1	high_cue	n/a	n/a	n/a	n/a	n/a	n/a	n/a	h037.png	n/a	n/a	n/a	n/a	n/a
36.31	1.0	cue	2	high_cue	n/a	n/a	n/a	n/a	n/a	n/a	n/a	h007.png	n/a	n/a	n/a	n/a	n/a
68.42	0.98	cue	3	low_cue	n/a	n/a	n/a	n/a	n/a	n/a	n/a	l002.png	n/a	n/a	n/a	n/a	n/a
103.12	1.0	cue	4	high_cue	n/a	n/a	n/a	n/a	n/a	n/a	n/a	h047.png	n/a	n/a	n/a	n/a	n/a
139.62	1.0	cue	5	high_cue	n/a	n/a	n/a	n/a	n/a	n/a	n/a	h050.png	n/a	n/a	n/a	n/a	n/a
175.71	1.0	cue	6	low_cue	n/a	n/a	n/a	n/a	n/a	n/a	n/a	l042.png	n/a	n/a	n/a	n/a	n/a
203.13	0.98	cue	7	high_cue	n/a	n/a	n/a	n/a	n/a	n/a	n/a	h021.png	n/a	n/a	n/a	n/a	n/a
235.82	1.0	cue	8	high_cue	n/a	n/a	n/a	n/a	n/a	n/a	n/a	h053.png	n/a	n/a	n/a	n/a	n/a
262.81	1.0	cue	9	low_cue	n/a	n/a	n/a	n/a	n/a	n/a	n/a	l019.png	n/a	n/a	n/a	n/a	n/a
294.61	1.0	cue	10	low_cue	n/a	n/a	n/a	n/a	n/a	n/a	n/a	l052.png	n/a	n/a	n/a	n/a	n/a
333.02	0.98	cue	11	low_cue	n/a	n/a	n/a	n/a	n/a	n/a	n/a	l047.png	n/a	n/a	n/a	n/a	n/a
372.32	1.0	cue	12	low_cue	n/a	n/a	n/a	n/a	n/a	n/a	n/a	l001.png	n/a	n/a	n/a	n/a	n/a
12.45		expectrating	1	high_cue	n/a					3.15	3.25	h037.png	n/a	n/a	n/a	n/a	n/a
39.23	2.6	expectrating	2	high_cue	n/a	55.61	Strong	55.61	Strong	0.67	1.93	h007.png	n/a	n/a	n/a	n/a	n/a
71.33	3.27	expectrating	3	low_cue	n/a	20.69	Moderate	20.69	Moderate	0.72	2.55	l002.png	n/a	n/a	n/a	n/a	n/a
106.02	3.39	expectrating	4	high_cue	n/a	55.1	Strong	55.1	Strong	1.8	1.59	h047.png	n/a	n/a	n/a	n/a	n/a
141.72	2.87	expectrating	5	high_cue	n/a	50.05	Strong	50.05	Strong	0.55	2.32	h050.png	n/a	n/a	n/a	n/a	n/a
178.52	2.3	expectrating	6	low_cue	n/a	23.26	Moderate	23.26	Moderate	1.02	1.28	l042.png	n/a	n/a	n/a	n/a	n/a
205.43	2.67	expectrating	7	high_cue	n/a	74.85	Very Strong	74.85	Very Strong	0.52	2.15	h021.png	n/a	n/a	n/a	n/a	n/a
237.82	3.14	expectrating	8	high_cue	n/a	51.02	Strong	51.02	Strong	0.87	2.27	h053.png	n/a	n/a	n/a	n/a	n/a
265.01	2.9	expectrating	9	low_cue	n/a	28.21	Moderate	28.21	Moderate	1.42	1.48	l019.png	n/a	n/a	n/a	n/a	n/a
297.53	2.9	expectrating	10	low_cue	n/a	42.04	Strong	42.04	Strong	0.85	2.05	l052.png	n/a	n/a	n/a	n/a	n/a
335.62	3.7	expectrating	11	low_cue	n/a	18.22	Moderate	18.22	Moderate	1.0	2.7	l047.png	n/a	n/a	n/a	n/a	n/a
374.32	2.46	expectrating	12	low_cue	n/a	14.37	Moderate	14.37	Moderate	0.68	1.77	l001.png	n/a	n/a	n/a	n/a	n/a
18.28	30.64	stimulus	1	high_cue	med_stim	n/a	n/a	n/a	n/a	n/a	n/a	49c	18.28	22.04	27.04	30.65	success
45.56	57.46	stimulus	2	high_cue	low_stim	n/a	n/a	n/a	n/a	n/a	n/a	48c	45.56	49.06	54.06	57.46	success
78.54	90.9	stimulus	3	low_cue	med_stim	n/a	n/a	n/a	n/a	n/a	n/a	49c	78.54	82.3	87.3	90.91	success
113.25	126.07	stimulus	4	high_cue	high_stim	n/a	n/a	n/a	n/a	n/a	n/a	50c	113.25	117.26	122.26	126.07	success
157.84	170.66	stimulus	5	high_cue	high_stim	n/a	n/a	n/a	n/a	n/a	n/a	50c	157.84	161.85	166.85	170.66	success
185.75	198.57	stimulus	6	low_cue	high_stim	n/a	n/a	n/a	n/a	n/a	n/a	50c	185.75	189.76	194.76	198.57	success
215.65	228.01	stimulus	7	high_cue	med_stim	n/a	n/a	n/a	n/a	n/a	n/a	49c	215.65	219.41	224.41	228.02	success
243.33	255.24	stimulus	8	high_cue	low_stim	n/a	n/a	n/a	n/a	n/a	n/a	48c	243.33	246.83	251.83	255.23	success
270.84	283.66	stimulus	9	low_cue	high_stim	n/a	n/a	n/a	n/a	n/a	n/a	50c	270.84	274.85	279.85	283.66	success
306.95	318.85	stimulus	10	low_cue	low_stim	n/a	n/a	n/a	n/a	n/a	n/a	48c	306.95	310.45	315.45	318.85	success
351.74	363.65	stimulus	11	low_cue	low_stim	n/a	n/a	n/a	n/a	n/a	n/a	48c	351.74	355.24	360.24	363.64	success
379.44	391.8	stimulus	12	low_cue	med_stim	n/a	n/a	n/a	n/a	n/a	n/a	49c	379.44	383.2	388.2	391.81	success
31.53	2.62	outcomerating	1	high_cue	med_stim	53.13	Strong	53.13	Strong	0.53	2.08	task-pain_scale.png	n/a	n/a	n/a	n/a	success
55.82	3.23	outcomerating	2	high_cue	low_stim	27.29	Moderate	27.29	Moderate	0.7	2.53	task-pain_scale.png	n/a	n/a	n/a	n/a	success
96.42	3.14	outcomerating	3	low_cue	med_stim	25.63	Moderate	25.63	Moderate	0.77	2.38	task-pain_scale.png	n/a	n/a	n/a	n/a	success
127.01	3.03	outcomerating	4	high_cue	high_stim	38.48	Strong	38.48	Strong	0.73	2.3	task-pain_scale.png	n/a	n/a	n/a	n/a	success
169.73	3.2	outcomerating	5	high_cue	high_stim	47.11	Strong	47.11	Strong	1.02	2.18	task-pain_scale.png	n/a	n/a	n/a	n/a	success
196.02	2.74	outcomerating	6	low_cue	high_stim	48.9	Strong	48.9	Strong	0.63	2.11	task-pain_scale.png	n/a	n/a	n/a	n/a	success
230.02	2.9	outcomerating	7	high_cue	med_stim	33.56	Strong	33.56	Strong	0.75	2.15	task-pain_scale.png	n/a	n/a	n/a	n/a	success
257.03	1.95	outcomerating	8	high_cue	low_stim	15.07	Moderate	15.07	Moderate	0.5	1.45	task-pain_scale.png	n/a	n/a	n/a	n/a	success
289.82		outcomerating	9	low_cue	high_stim			53.64	Strong	0.87	1.72	task-pain_scale.png	n/a	n/a	n/a	n/a	success
318.82	3.07	outcomerating	10	low_cue	low_stim	25.64	Moderate	25.64	Moderate	0.55	2.52	task-pain_scale.png	n/a	n/a	n/a	n/a	success
362.02	2.63	outcomerating	11	low_cue	low_stim	11.13	Moderate	11.13	Moderate	0.83	1.8	task-pain_scale.png	n/a	n/a	n/a	n/a	success
394.81		outcomerating	12	low_cue	med_stim			29.86	Strong	0.8	2.47	task-pain_scale.png	n/a	n/a	n/a	n/a	success
