onset	duration	trial_type	trial_index	cue	stimulusintensity	rating_value	rating_glmslabel	rating_value_fillna	rating_glmslabel_fillna	rating_mouseonset	rating_mousedur	stim_file	correct_response	participant_response	response_accuracy
11.28	0.99	cue	1	high_cue	n/a	n/a	n/a	n/a	n/a	n/a	n/a	h035.png	n/a	n/a	n/a
44.28	0.99	cue	2	low_cue	n/a	n/a	n/a	n/a	n/a	n/a	n/a	l047.png	n/a	n/a	n/a
80.68	0.99	cue	3	high_cue	n/a	n/a	n/a	n/a	n/a	n/a	n/a	h010.png	n/a	n/a	n/a
105.59	0.98	cue	4	low_cue	n/a	n/a	n/a	n/a	n/a	n/a	n/a	l022.png	n/a	n/a	n/a
133.79	0.99	cue	5	high_cue	n/a	n/a	n/a	n/a	n/a	n/a	n/a	h049.png	n/a	n/a	n/a
169.49	0.99	cue	6	high_cue	n/a	n/a	n/a	n/a	n/a	n/a	n/a	h034.png	n/a	n/a	n/a
204.39	0.99	cue	7	low_cue	n/a	n/a	n/a	n/a	n/a	n/a	n/a	l030.png	n/a	n/a	n/a
234.28	0.99	cue	8	high_cue	n/a	n/a	n/a	n/a	n/a	n/a	n/a	h045.png	n/a	n/a	n/a
266.68	0.99	cue	9	low_cue	n/a	n/a	n/a	n/a	n/a	n/a	n/a	l002.png	n/a	n/a	n/a
294.78	0.99	cue	10	high_cue	n/a	n/a	n/a	n/a	n/a	n/a	n/a	h008.png	n/a	n/a	n/a
327.08	1.0	cue	11	low_cue	n/a	n/a	n/a	n/a	n/a	n/a	n/a	l027.png	n/a	n/a	n/a
366.48	0.99	cue	12	low_cue	n/a	n/a	n/a	n/a	n/a	n/a	n/a	l014.png	n/a	n/a	n/a
14.2	2.8	expectrating	1	high_cue	n/a	77.7	Very Strong	77.7	Very Strong	0.87	1.93	h035.png	n/a	n/a	n/a
47.2	1.49	expectrating	2	low_cue	n/a	12.08	Moderate	12.08	Moderate	0.32	1.17	l047.png	n/a	n/a	n/a
83.68	1.47	expectrating	3	high_cue	n/a	68.33	Very Strong	68.33	Very Strong	0.25	1.22	h010.png	n/a	n/a	n/a
107.39	1.52	expectrating	4	low_cue	n/a	16.32	Moderate	16.32	Moderate	0.05	1.47	l022.png	n/a	n/a	n/a
135.59	2.2	expectrating	5	high_cue	n/a	70.47	Very Strong	70.47	Very Strong	0.05	2.15	h049.png	n/a	n/a	n/a
172.39	1.41	expectrating	6	high_cue	n/a	72.29	Very Strong	72.29	Very Strong	0.3	1.11	h034.png	n/a	n/a	n/a
207.29	1.33	expectrating	7	low_cue	n/a	0.0		0.0		0.05	1.28	l030.png	n/a	n/a	n/a
236.18	1.5	expectrating	8	high_cue	n/a	62.92	Strong	62.92	Strong	0.07	1.43	h045.png	n/a	n/a	n/a
268.5	1.77	expectrating	9	low_cue	n/a	7.21	Weak	7.21	Weak	0.2	1.57	l002.png	n/a	n/a	n/a
297.28	2.16	expectrating	10	high_cue	n/a	78.97	Very Strong	78.97	Very Strong	0.42	1.74	h008.png	n/a	n/a	n/a
330.0	1.45	expectrating	11	low_cue	n/a	7.18	Weak	7.18	Weak	0.05	1.4	l027.png	n/a	n/a	n/a
369.38	1.77	expectrating	12	low_cue	n/a	3.24	Weak	3.24	Weak	0.05	1.72	l014.png	n/a	n/a	n/a
21.3	6.99	stimulus	1	high_cue	high_stim	n/a	n/a	n/a	n/a	n/a	n/a	14_150.jpg	same	diff	False
61.39	7.0	stimulus	2	low_cue	high_stim	n/a	n/a	n/a	n/a	n/a	n/a	14_150_R.jpg	diff	diff	True
91.98	7.0	stimulus	3	high_cue	high_stim	n/a	n/a	n/a	n/a	n/a	n/a	35_150_R.jpg	diff	diff	True
114.49	6.99	stimulus	4	low_cue	med_stim	n/a	n/a	n/a	n/a	n/a	n/a	26_100_R.jpg	diff		False
147.89	6.99	stimulus	5	high_cue	low_stim	n/a	n/a	n/a	n/a	n/a	n/a	28_50.jpg	same	same	True
186.89	6.99	stimulus	6	high_cue	med_stim	n/a	n/a	n/a	n/a	n/a	n/a	22_100.jpg	same	same	True
218.39	6.99	stimulus	7	low_cue	high_stim	n/a	n/a	n/a	n/a	n/a	n/a	7_150.jpg	same		False
244.89	7.0	stimulus	8	high_cue	low_stim	n/a	n/a	n/a	n/a	n/a	n/a	22_50.jpg	same	same	True
280.79	7.0	stimulus	9	low_cue	low_stim	n/a	n/a	n/a	n/a	n/a	n/a	44_50.jpg	same	same	True
307.89	7.0	stimulus	10	high_cue	med_stim	n/a	n/a	n/a	n/a	n/a	n/a	7_100_R.jpg	diff	diff	True
342.88	7.0	stimulus	11	low_cue	med_stim	n/a	n/a	n/a	n/a	n/a	n/a	19_100.jpg	same	same	True
376.18	7.0	stimulus	12	low_cue	low_stim	n/a	n/a	n/a	n/a	n/a	n/a	28_50_R.jpg	diff	diff	True
32.69	1.94	outcomerating	1	high_cue	high_stim	83.71	Very Strong	83.71	Very Strong	0.42	1.53	task-cognitive_scale.png	n/a	n/a	n/a
70.69	2.92	outcomerating	2	low_cue	high_stim	11.85	Moderate	11.85	Moderate	1.05	1.87	task-cognitive_scale.png	n/a	n/a	n/a
100.59	2.23	outcomerating	3	high_cue	high_stim	64.89	Very Strong	64.89	Very Strong	1.0	1.23	task-cognitive_scale.png	n/a	n/a	n/a
126.08	2.09	outcomerating	4	low_cue	med_stim	91.85	Very Strong	91.85	Very Strong	0.05	2.04	task-cognitive_scale.png	n/a	n/a	n/a
159.5	2.13	outcomerating	5	high_cue	low_stim	12.96	Moderate	12.96	Moderate	0.12	2.02	task-cognitive_scale.png	n/a	n/a	n/a
196.68	2.35	outcomerating	6	high_cue	med_stim	28.24	Moderate	28.24	Moderate	0.57	1.78	task-cognitive_scale.png	n/a	n/a	n/a
228.38	3.57	outcomerating	7	low_cue	high_stim	73.96	Very Strong	73.96	Very Strong	0.33	3.24	task-cognitive_scale.png	n/a	n/a	n/a
255.69	1.6	outcomerating	8	high_cue	low_stim	0.23	No sensation	0.23	No sensation	0.18	1.42	task-cognitive_scale.png	n/a	n/a	n/a
288.99	2.83	outcomerating	9	low_cue	low_stim	21.63	Moderate	21.63	Moderate	0.42	2.42	task-cognitive_scale.png	n/a	n/a	n/a
317.19	1.67	outcomerating	10	high_cue	med_stim	11.13	Moderate	11.13	Moderate	0.05	1.62	task-cognitive_scale.png	n/a	n/a	n/a
361.49	1.92	outcomerating	11	low_cue	med_stim	6.52	Weak	6.52	Weak	0.32	1.6	task-cognitive_scale.png	n/a	n/a	n/a
394.79	3.42	outcomerating	12	low_cue	low_stim	11.17	Moderate	11.17	Moderate	0.97	2.46	task-cognitive_scale.png	n/a	n/a	n/a
