onset	duration	trial_type	trial_index	cue	stimulusintensity	rating_value	rating_glmslabel	rating_value_fillna	rating_glmslabel_fillna	rating_mouseonset	rating_mousedur	stim_file	correct_response	participant_response	response_accuracy
11.58	0.99	cue	1	low_cue	n/a	n/a	n/a	n/a	n/a	n/a	n/a	l042.png	n/a	n/a	n/a
42.38	0.99	cue	2	high_cue	n/a	n/a	n/a	n/a	n/a	n/a	n/a	h029.png	n/a	n/a	n/a
74.19	0.98	cue	3	high_cue	n/a	n/a	n/a	n/a	n/a	n/a	n/a	h025.png	n/a	n/a	n/a
110.59	0.98	cue	4	high_cue	n/a	n/a	n/a	n/a	n/a	n/a	n/a	h024.png	n/a	n/a	n/a
139.89	0.99	cue	5	low_cue	n/a	n/a	n/a	n/a	n/a	n/a	n/a	l040.png	n/a	n/a	n/a
181.29	0.99	cue	6	low_cue	n/a	n/a	n/a	n/a	n/a	n/a	n/a	l050.png	n/a	n/a	n/a
216.08	0.99	cue	7	low_cue	n/a	n/a	n/a	n/a	n/a	n/a	n/a	l032.png	n/a	n/a	n/a
250.38	0.99	cue	8	low_cue	n/a	n/a	n/a	n/a	n/a	n/a	n/a	l026.png	n/a	n/a	n/a
287.68	0.99	cue	9	high_cue	n/a	n/a	n/a	n/a	n/a	n/a	n/a	h053.png	n/a	n/a	n/a
317.99	0.98	cue	10	high_cue	n/a	n/a	n/a	n/a	n/a	n/a	n/a	h048.png	n/a	n/a	n/a
343.89	0.99	cue	11	high_cue	n/a	n/a	n/a	n/a	n/a	n/a	n/a	h056.png	n/a	n/a	n/a
374.78	0.99	cue	12	low_cue	n/a	n/a	n/a	n/a	n/a	n/a	n/a	l021.png	n/a	n/a	n/a
14.82	2.12	expectrating	1	low_cue	n/a	10.86	Moderate	10.86	Moderate	0.07	2.05	l042.png	n/a	n/a	n/a
44.2	1.68	expectrating	2	high_cue	n/a	80.05	Very Strong	80.05	Very Strong	0.52	1.17	h029.png	n/a	n/a	n/a
77.39	2.12	expectrating	3	high_cue	n/a	93.22	Very Strong	93.22	Very Strong	0.12	2.0	h025.png	n/a	n/a	n/a
113.29	1.94	expectrating	4	high_cue	n/a	72.95	Very Strong	72.95	Very Strong	0.62	1.32	h024.png	n/a	n/a	n/a
143.1	1.57	expectrating	5	low_cue	n/a	0.46	No sensation	0.46	No sensation	0.27	1.3	l040.png	n/a	n/a	n/a
183.69	2.02	expectrating	6	low_cue	n/a	13.48	Moderate	13.48	Moderate	0.5	1.52	l050.png	n/a	n/a	n/a
218.69	2.93	expectrating	7	low_cue	n/a	15.38	Moderate	15.38	Moderate	0.07	2.87	l032.png	n/a	n/a	n/a
253.08	1.77	expectrating	8	low_cue	n/a	14.37	Moderate	14.37	Moderate	0.05	1.72	l026.png	n/a	n/a	n/a
289.5	1.68	expectrating	9	high_cue	n/a	73.39	Very Strong	73.39	Very Strong	0.43	1.25	h053.png	n/a	n/a	n/a
320.59	2.43	expectrating	10	high_cue	n/a	47.43	Strong	47.43	Strong	0.55	1.88	h048.png	n/a	n/a	n/a
345.69	3.45	expectrating	11	high_cue	n/a	81.61	Very Strong	81.61	Very Strong	0.82	2.64	h056.png	n/a	n/a	n/a
376.68	1.58	expectrating	12	low_cue	n/a	12.48	Moderate	12.48	Moderate	0.28	1.29	l021.png	n/a	n/a	n/a
21.51	6.99	stimulus	1	low_cue	low_stim	n/a	n/a	n/a	n/a	n/a	n/a	24_50.jpg	same	same	True
57.49	7.0	stimulus	2	high_cue	med_stim	n/a	n/a	n/a	n/a	n/a	n/a	19_100_R.jpg	diff	same	False
85.1	6.99	stimulus	3	high_cue	low_stim	n/a	n/a	n/a	n/a	n/a	n/a	35_50_R.jpg	diff	diff	True
120.0	6.99	stimulus	4	high_cue	high_stim	n/a	n/a	n/a	n/a	n/a	n/a	19_150_R.jpg	diff	diff	True
156.79	7.0	stimulus	5	low_cue	med_stim	n/a	n/a	n/a	n/a	n/a	n/a	44_100.jpg	same	same	True
196.79	6.99	stimulus	6	low_cue	high_stim	n/a	n/a	n/a	n/a	n/a	n/a	20_150_R.jpg	diff	diff	True
235.79	7.0	stimulus	7	low_cue	med_stim	n/a	n/a	n/a	n/a	n/a	n/a	14_100_R.jpg	diff	same	False
265.79	7.0	stimulus	8	low_cue	high_stim	n/a	n/a	n/a	n/a	n/a	n/a	24_150.jpg	same	diff	False
297.08	7.0	stimulus	9	high_cue	low_stim	n/a	n/a	n/a	n/a	n/a	n/a	26_50.jpg	same	same	True
328.18	7.0	stimulus	10	high_cue	high_stim	n/a	n/a	n/a	n/a	n/a	n/a	44_150_R.jpg	diff	diff	True
357.79	7.0	stimulus	11	high_cue	med_stim	n/a	n/a	n/a	n/a	n/a	n/a	35_100_R.jpg	diff		False
384.29	7.0	stimulus	12	low_cue	low_stim	n/a	n/a	n/a	n/a	n/a	n/a	20_50_R.jpg	diff	diff	True
36.89	3.17	outcomerating	1	low_cue	low_stim	7.64	Weak	7.64	Weak	0.22	2.95	task-cognitive_scale.png	n/a	n/a	n/a
67.49	2.4	outcomerating	2	high_cue	med_stim	55.93	Strong	55.93	Strong	0.57	1.83	task-cognitive_scale.png	n/a	n/a	n/a
96.59	2.95	outcomerating	3	high_cue	low_stim	82.87	Very Strong	82.87	Very Strong	0.55	2.4	task-cognitive_scale.png	n/a	n/a	n/a
133.18	3.59	outcomerating	4	high_cue	high_stim	26.15	Moderate	26.15	Moderate	0.52	3.07	task-cognitive_scale.png	n/a	n/a	n/a
165.7	3.44	outcomerating	5	low_cue	med_stim	9.95	Weak	9.95	Weak	0.38	3.05	task-cognitive_scale.png	n/a	n/a	n/a
210.38	2.87	outcomerating	6	low_cue	high_stim	13.16	Moderate	13.16	Moderate	1.28	1.59	task-cognitive_scale.png	n/a	n/a	n/a
244.5	2.93	outcomerating	7	low_cue	med_stim	40.24	Strong	40.24	Strong	1.08	1.84	task-cognitive_scale.png	n/a	n/a	n/a
282.7	2.03	outcomerating	8	low_cue	high_stim	29.14	Strong	29.14	Strong	0.42	1.62	task-cognitive_scale.png	n/a	n/a	n/a
308.19	2.53	outcomerating	9	high_cue	low_stim	6.67	Weak	6.67	Weak	0.37	2.17	task-cognitive_scale.png	n/a	n/a	n/a
337.48	1.94	outcomerating	10	high_cue	high_stim	32.47	Strong	32.47	Strong	0.6	1.34	task-cognitive_scale.png	n/a	n/a	n/a
366.7	2.83	outcomerating	11	high_cue	med_stim	69.09	Very Strong	69.09	Very Strong	0.85	1.98	task-cognitive_scale.png	n/a	n/a	n/a
394.79		outcomerating	12	low_cue	low_stim			0.0		0.48	2.98	task-cognitive_scale.png	n/a	n/a	n/a
