onset	duration	trial_type	trial_index	cue	stimulusintensity	rating_value	rating_glmslabel	rating_value_fillna	rating_glmslabel_fillna	rating_mouseonset	rating_mousedur	stim_file
11.0	0.99	cue	1	low_cue	n/a	n/a	n/a	n/a	n/a	n/a	n/a	l056.png
51.5	0.99	cue	2	low_cue	n/a	n/a	n/a	n/a	n/a	n/a	n/a	l027.png
82.99	1.0	cue	3	high_cue	n/a	n/a	n/a	n/a	n/a	n/a	n/a	h014.png
117.21	0.98	cue	4	high_cue	n/a	n/a	n/a	n/a	n/a	n/a	n/a	h034.png
150.5	0.99	cue	5	high_cue	n/a	n/a	n/a	n/a	n/a	n/a	n/a	h010.png
185.1	0.99	cue	6	low_cue	n/a	n/a	n/a	n/a	n/a	n/a	n/a	l003.png
213.21	0.98	cue	7	low_cue	n/a	n/a	n/a	n/a	n/a	n/a	n/a	l053.png
244.3	0.99	cue	8	high_cue	n/a	n/a	n/a	n/a	n/a	n/a	n/a	h041.png
270.4	0.99	cue	9	high_cue	n/a	n/a	n/a	n/a	n/a	n/a	n/a	h004.png
304.09	1.0	cue	10	low_cue	n/a	n/a	n/a	n/a	n/a	n/a	n/a	l052.png
338.11	0.98	cue	11	low_cue	n/a	n/a	n/a	n/a	n/a	n/a	n/a	l036.png
376.1	0.99	cue	12	high_cue	n/a	n/a	n/a	n/a	n/a	n/a	n/a	h045.png
14.32	1.96	expectrating	1	low_cue	n/a	52.06	Strong	52.06	Strong	0.05	1.91	l056.png
53.7	3.52	expectrating	2	low_cue	n/a	23.87	Moderate	23.87	Moderate	0.15	3.37	l027.png
85.81	2.24	expectrating	3	high_cue	n/a	53.92	Strong	53.92	Strong	0.93	1.3	h014.png
119.31	2.0	expectrating	4	high_cue	n/a	76.8	Very Strong	76.8	Very Strong	0.05	1.95	h034.png
152.7	1.4	expectrating	5	high_cue	n/a	32.47	Strong	32.47	Strong	0.05	1.35	h010.png
187.1	2.71	expectrating	6	low_cue	n/a	38.77	Strong	38.77	Strong	0.05	2.66	l003.png
216.51	3.2	expectrating	7	low_cue	n/a	35.99	Strong	35.99	Strong	0.95	2.25	l053.png
247.31	2.92	expectrating	8	high_cue	n/a	26.36	Moderate	26.36	Moderate	0.92	2.0	h041.png
272.4	1.88	expectrating	9	high_cue	n/a	73.73	Very Strong	73.73	Very Strong	0.05	1.83	h004.png
306.31	2.03	expectrating	10	low_cue	n/a	20.99	Moderate	20.99	Moderate	0.13	1.9	l052.png
340.31	3.97	expectrating	11	low_cue	n/a	33.24	Strong	33.24	Strong	0.05	3.92	l036.png
378.9	2.47	expectrating	12	high_cue	n/a	55.1	Strong	55.1	Strong	0.05	2.42	h045.png
32.49	7.0	stimulus	1	low_cue	med_stim	n/a	n/a	n/a	n/a	n/a	n/a	gf097t1aiaff_M.mp4
62.39	7.01	stimulus	2	low_cue	high_stim	n/a	n/a	n/a	n/a	n/a	n/a	jk103t1aaaff_H.mp4
92.49	7.01	stimulus	3	high_cue	low_stim	n/a	n/a	n/a	n/a	n/a	n/a	mg101t2afunaff_L.mp4
132.79	7.01	stimulus	4	high_cue	med_stim	n/a	n/a	n/a	n/a	n/a	n/a	jk103t2aaunaff_M.mp4
170.9	7.0	stimulus	5	high_cue	high_stim	n/a	n/a	n/a	n/a	n/a	n/a	hs107t1afaff_H.mp4
195.59	7.01	stimulus	6	low_cue	high_stim	n/a	n/a	n/a	n/a	n/a	n/a	mg101t2aeaff_H.mp4
224.99	7.01	stimulus	7	low_cue	low_stim	n/a	n/a	n/a	n/a	n/a	n/a	gf097t2aiunaff_L.mp4
253.99	7.0	stimulus	8	high_cue	high_stim	n/a	n/a	n/a	n/a	n/a	n/a	th108t1aeaff_H.mp4
281.69	7.01	stimulus	9	high_cue	low_stim	n/a	n/a	n/a	n/a	n/a	n/a	hs107t2aeunaff_L.mp4
313.59	7.01	stimulus	10	low_cue	med_stim	n/a	n/a	n/a	n/a	n/a	n/a	nm106t2aaunaff_M.mp4
352.19	7.0	stimulus	11	low_cue	low_stim	n/a	n/a	n/a	n/a	n/a	n/a	jk103t1aaunaff_L.mp4
387.39	7.0	stimulus	12	high_cue	med_stim	n/a	n/a	n/a	n/a	n/a	n/a	th108t2aaunaff_M.mp4
45.31		outcomerating	1	low_cue	med_stim			31.08	Strong	0.05	3.27	task-vicarious_scale.png
75.21	2.75	outcomerating	2	low_cue	high_stim	8.39	Weak	8.39	Weak	0.13	2.62	task-vicarious_scale.png
100.42	1.57	outcomerating	3	high_cue	low_stim	27.8	Moderate	27.8	Moderate	0.52	1.06	task-vicarious_scale.png
145.62	2.21	outcomerating	4	high_cue	med_stim	68.07	Very Strong	68.07	Very Strong	0.1	2.11	task-vicarious_scale.png
179.61	2.12	outcomerating	5	high_cue	high_stim	37.33	Strong	37.33	Strong	0.4	1.72	task-vicarious_scale.png
204.31	3.49	outcomerating	6	low_cue	high_stim	26.87	Moderate	26.87	Moderate	0.6	2.89	task-vicarious_scale.png
238.12	1.61	outcomerating	7	low_cue	low_stim	31.91	Strong	31.91	Strong	0.25	1.36	task-vicarious_scale.png
263.01	2.75	outcomerating	8	high_cue	high_stim	31.91	Strong	31.91	Strong	0.17	2.58	task-vicarious_scale.png
298.61	2.13	outcomerating	9	high_cue	low_stim	62.31	Strong	62.31	Strong	0.52	1.62	task-vicarious_scale.png
329.82	1.8	outcomerating	10	low_cue	med_stim	35.48	Strong	35.48	Strong	0.68	1.12	task-vicarious_scale.png
363.92	2.45	outcomerating	11	low_cue	low_stim	24.71	Moderate	24.71	Moderate	0.38	2.07	task-vicarious_scale.png
395.01	1.62	outcomerating	12	high_cue	med_stim	11.67	Moderate	11.67	Moderate	0.83	0.78	task-vicarious_scale.png
