ISI01_biopac,ISI01_duration,ISI01_onset,ISI02_biopac,ISI02_duration,ISI02_onset,ISI03_biopac,ISI03_duration,ISI03_onset,ITI_biopac,ITI_duration,ITI_onset,delay_between_medoc,event01_cue_biopac,event01_cue_filename,event01_cue_onset,event01_cue_type,event02_expect_RT,event02_expect_angle,event02_expect_angle_label,event02_expect_biopac,event02_expect_displayonset,event02_expect_responseonset,event03_stimulusC_RT,event03_stimulusC_reseponseonset,event03_stimulusC_response,event03_stimulusC_responsekeyname,event03_stimulus_C_stim_filename,event03_stimulus_C_stim_match,event03_stimulus_C_stim_num,event03_stimulus_P_delay_between_medoc,event03_stimulus_P_trigger,event03_stimulus_V_filename,event03_stimulus_V_patientid,event03_stimulus_biopac,event03_stimulus_displayonset,event03_stimulus_type,event04_actual_RT,event04_actual_angle,event04_actual_angle_label,event04_actual_biopac,event04_actual_displayonset,event04_actual_responseonset,param_cond_type,param_counterbalance_block_num,param_counterbalance_ver,param_cue_type,param_end_biopac,param_end_instruct_onset,param_experiment_duration,param_run_num,param_start_biopac,param_stimulus_type,param_task_name,param_trigger_onset,session_id,src_subject_id,trial_no
1614182763.5034802,0.783005237579346,1614182763.50198,1614182768.3388698,4.64783310890198,1614182768.33715,1614182781.99794,3.99264001846313,1614182781.99234,1614182751.8995302,10.5877482891083,1614182751.89756,0.0562021732330322,1614182762.50305,l049.png,1614182762.5016,low_cue,3.30144548416138,4.15128526642169,FIX,1614182764.31926,1614182764.31895,1614182767.6204,0,0,0,,,,0,0,Command Recieved: TRIGGER_AND_Response: RESULT_OK,,,1614182773.0481,1614182773.0476198,low_stim,3.2029769420623797,26.8725389916558,FIX,1614182785.99677,1614182785.99387,1614182789.19684,1,2,5,low_cue,1614183147.61715,1614183147.61477,398.49287724494906,-1,1614182749.12314,low_stim,pain,1614182749.12189,4,3,1
1614182793.0981,1.9884147644043002,1614182793.09657,1614182799.1173801,4.66945886611938,1614182799.11553,1614182812.8056,6.48091793060303,1614182812.80406,1614182790.01397,2.07328915596008,1614182790.01206,0.0473439693450928,1614182792.09798,l032.png,1614182792.09619,low_cue,1.45075011253357,0.0,FIX,1614182795.0976698,1614182795.09733,1614182796.54808,0,0,0,,,,0,0,Command Recieved: TRIGGER_AND_Response: RESULT_OK,,,1614182803.8332,1614182803.83285,med_stim,2.3238508701324503,27.6943915931417,FIX,1614182819.30674,1614182819.30654,1614182821.63039,2,2,5,low_cue,1614183147.61715,1614183147.61477,398.49287724494906,-1,1614182749.12314,med_stim,pain,1614182749.12189,4,3,2
1614182828.79821,1.99150276184082,1614182828.7934802,1614182834.8148599,0.7725453376770021,1614182834.8124402,1614182844.60103,4.485490560531621,1614182844.59949,1614182823.3427699,4.4438986778259295,1614182823.34141,0.0454349517822266,1614182827.7983902,h030.png,1614182827.7931,high_cue,2.10284352302551,36.2663177589231,FIX,1614182830.7971098,1614182830.79424,1614182832.89709,0,0,0,,,,0,0,Command Recieved: TRIGGER_AND_Response: RESULT_OK,,,1614182835.6312802,1614182835.63091,med_stim,2.5011401176452597,31.484977376588898,FIX,1614182849.1015599,1614182849.1012099,1614182851.60235,5,2,5,high_cue,1614183147.61715,1614183147.61477,398.49287724494906,-1,1614182749.12314,med_stim,pain,1614182749.12189,4,3,3
1614182863.9985,0.8947796821594242,1614182863.9902,1614182868.92656,3.35956883430481,1614182868.92541,1614182881.29862,4.8881947994232195,1614182881.2967901,1614182853.13209,9.86590099334717,1614182853.1194,0.063683032989502,1614182862.9987,l004.png,1614182862.98982,low_cue,1.24010396003723,0.0,FIX,1614182864.90734,1614182864.90722,1614182866.14732,0,0,0,,,,0,0,Command Recieved: TRIGGER_AND_Response: RESULT_OK,,,1614182872.3496,1614182872.3492,high_stim,3.3014280796051003,32.1522951412823,FIX,1614182886.19902,1614182886.19865,1614182889.50008,3,2,5,low_cue,1614183147.61715,1614183147.61477,398.49287724494906,-1,1614182749.12314,high_stim,pain,1614182749.12189,4,3,4
1614182901.80637,0.6803934574127201,1614182901.80459,1614182906.53341,2.46193146705627,1614182906.52305,1614182917.99922,4.19090151786804,1614182917.99408,1614182890.23605,10.552303552627599,1614182890.23352,0.0458581447601318,1614182900.8055,h049.png,1614182900.80421,high_cue,2.0760955810546897,47.78870767984421,FIX,1614182902.51444,1614182902.50486,1614182904.58095,0,0,0,,,,0,0,Command Recieved: TRIGGER_AND_Response: RESULT_OK,,,1614182909.03255,1614182909.03172,med_stim,1.83545446395874,19.3885677146773,FIX,1614182922.1977198,1614182922.1956801,1614182924.03113,5,2,5,high_cue,1614183147.61715,1614183147.61477,398.49287724494906,-1,1614182749.12314,med_stim,pain,1614182749.12189,4,3,5
1614182928.89923,2.08675456047058,1614182928.89823,1614182935.01826,2.16775965690613,1614182935.01722,1614182946.20614,4.78016924858093,1614182946.20481,1614182926.23214,1.65453886985779,1614182926.23055,0.0656960010528564,1614182927.89885,l024.png,1614182927.89785,low_cue,1.45074844360352,0.0,FIX,1614182930.99924,1614182930.99903,1614182932.44978,0,0,0,,,,0,0,Command Recieved: TRIGGER_AND_Response: RESULT_OK,,,1614182937.25148,1614182937.25119,high_stim,2.48441219329834,34.8409440041532,FIX,1614182951.0079598,1614182951.00664,1614182953.49105,3,2,5,low_cue,1614183147.61715,1614183147.61477,398.49287724494906,-1,1614182749.12314,high_stim,pain,1614182749.12189,4,3,6
1614182957.29907,1.9926183223724399,1614182957.29236,1614182963.31565,5.27366423606873,1614182963.3113198,1614182977.60125,4.18489480018616,1614182977.60009,1614182955.03201,1.26027178764343,1614182955.02484,0.0602869987487793,1614182956.29924,l050.png,1614182956.29198,low_cue,2.12163472175598,0.0,FIX,1614182959.29842,1614182959.2931302,1614182961.4147599,0,0,0,,,,0,0,Command Recieved: TRIGGER_AND_Response: RESULT_OK,,,1614182968.64601,1614182968.64578,low_stim,1.73415207862854,9.9546069435557,FIX,1614182981.80196,1614182981.80169,1614182983.53584,1,2,5,low_cue,1614183147.61715,1614183147.61477,398.49287724494906,-1,1614182749.12314,low_stim,pain,1614182749.12189,4,3,7
1614182987.70507,0.6810510158538822,1614182987.7039301,1614182992.42314,4.86258745193481,1614182992.4224,1614183006.29917,3.1906452178955096,1614183006.2943401,1614182985.83258,0.865209579467773,1614182985.81988,0.0602531433105469,1614182986.70462,h047.png,1614182986.70355,high_cue,2.13427352905273,45.1632353974189,FIX,1614182988.40438,1614182988.4042,1614182990.53847,0,0,0,,,,0,0,Command Recieved: TRIGGER_AND_Response: RESULT_OK,,,1614182997.34606,1614182997.34574,high_stim,2.5029051303863503,35.1621490339668,FIX,1614183009.4985301,1614183009.49556,1614183011.99846,6,2,5,high_cue,1614183147.61715,1614183147.61477,398.49287724494906,-1,1614182749.12314,high_stim,pain,1614182749.12189,4,3,8
1614183018.39992,1.98603868484497,1614183018.39894,1614183024.41885,2.16708278656006,1614183024.4179,1614183035.60659,5.67949438095093,1614183035.60549,1614183013.51549,3.87132620811462,1614183013.51375,0.0628848075866699,1614183017.39983,h054.png,1614183017.39856,high_cue,3.05134272575378,72.84477033136541,FIX,1614183020.40006,1614183020.3997,1614183023.45105,0,0,0,,,,0,0,Command Recieved: TRIGGER_AND_Response: RESULT_OK,,,1614183026.6489599,1614183026.64859,high_stim,3.5577425956726096,22.867056299772702,FIX,1614183041.30791,1614183041.3076599,1614183044.8654,6,2,5,high_cue,1614183147.61715,1614183147.61477,398.49287724494906,-1,1614182749.12314,high_stim,pain,1614182749.12189,4,3,9
1614183050.20013,1.79061055183411,1614183050.19437,1614183056.01683,10.571730852127098,1614183056.01325,1614183075.6054199,2.18094301223755,1614183075.6040401,1614183045.43293,3.7591936588287402,1614183045.42589,0.0498008728027344,1614183049.19984,h027.png,1614183049.19399,high_cue,2.6204776763916002,61.371129094465104,FIX,1614183051.99894,1614183051.99506,1614183054.61554,0,0,0,,,,0,0,Command Recieved: TRIGGER_AND_Response: RESULT_OK,,,1614183066.63545,1614183066.6352198,low_stim,3.2347464561462402,0.46205272143076503,FIX,1614183077.8053,1614183077.8048801,1614183081.03962,4,2,5,high_cue,1614183147.61715,1614183147.61477,398.49287724494906,-1,1614182749.12314,low_stim,pain,1614182749.12189,4,3,10
1614183083.70005,1.8945348262786899,1614183083.69045,1614183089.62685,4.858943462371831,1614183089.62604,1614183103.50017,4.987000465393071,1614183103.49798,1614183081.8409,0.845323085784912,1614183081.83974,0.0539741516113281,1614183082.70033,h046.png,1614183082.69007,high_cue,2.00786399841309,35.217592968192704,FIX,1614183085.60817,1614183085.60784,1614183087.61571,0,0,0,,,,0,0,Command Recieved: TRIGGER_AND_Response: RESULT_OK,,,1614183094.5403,1614183094.53969,low_stim,3.36811113357544,20.339222112652198,FIX,1614183108.5001,1614183108.49989,1614183111.8679998,4,2,5,high_cue,1614183147.61715,1614183147.61477,398.49287724494906,-1,1614182749.12314,low_stim,pain,1614182749.12189,4,3,11
1614183117.1045802,0.8818228244781491,1614183117.10316,1614183122.02249,7.56328535079956,1614183122.0217,1614183138.6003802,4.990314960479741,1614183138.5946698,1614183112.5334,3.5670003890991198,1614183112.51808,0.042637825012207003,1614183116.10463,l015.png,1614183116.10278,low_cue,1.4673895835876498,1.3859178508121899,FIX,1614183118.00408,1614183118.0035,1614183119.47089,0,0,0,,,,0,0,Command Recieved: TRIGGER_AND_Response: RESULT_OK,,,1614183129.62847,1614183129.62811,med_stim,2.6362156867981,10.806145637528699,FIX,1614183143.59976,1614183143.59657,1614183146.23279,2,2,5,low_cue,1614183147.61715,1614183147.61477,398.49287724494906,-1,1614182749.12314,med_stim,pain,1614182749.12189,4,3,12
1614184120.63636,1.5834765434265101,1614184120.63492,1614184126.27493,5.1479997634887695,1614184126.2704,1614184140.44171,2.99261474609375,1614184140.42579,1614184117.43507,2.1853084564208998,1614184117.4337,0.0497488975524902,1614184119.6365302,l044.png,1614184119.63454,low_cue,1.55479645729065,6.03325300620071,FIX,1614184122.25712,1614184122.25221,1614184123.8070002,0,0,0,,,,0,0,Command Recieved: TRIGGER_AND_Response: RESULT_OK,,,1614184131.47744,1614184131.4770002,high_stim,3.28477549552917,38.2508252104303,FIX,1614184143.44074,1614184143.4269302,1614184146.7117,3,1,5,low_cue,1614184513.5611699,1614184513.55106,398.89517354965204,2,1614184114.6570802,high_stim,pain,1614184114.65589,4,3,13
1614184153.03191,1.28781986236572,1614184153.03058,1614184158.35051,6.26912975311279,1614184158.3492699,1614184173.63989,6.47998070716858,1614184173.6384199,1614184147.45822,4.57338047027588,1614184147.4451199,0.0450119972229004,1614184152.0311801,h047.png,1614184152.0302,high_cue,2.97656512260437,32.847543265239395,FIX,1614184154.34058,1614184154.33107,1614184157.30764,0,0,0,,,,0,0,Command Recieved: TRIGGER_AND_Response: RESULT_OK,,,1614184164.66429,1614184164.664,med_stim,2.70117449760437,26.7749248886455,FIX,1614184180.1410902,1614184180.1408901,1614184182.8420699,5,1,5,high_cue,1614184513.5611699,1614184513.55106,398.89517354965204,2,1614184114.6570802,med_stim,pain,1614184114.65589,4,3,14
1614184186.3280802,1.29181981086731,1614184186.32658,1614184191.6460001,0.873130083084106,1614184191.6452699,1614184201.53335,1.3860359191894498,1614184201.53236,1614184184.17504,1.15941190719604,1614184184.15909,0.0481231212615967,1614184185.3273802,l055.png,1614184185.3262,low_cue,2.95135450363159,4.84011248884704,FIX,1614184187.64126,1614184187.62708,1614184190.5784302,0,0,0,,,,0,0,Command Recieved: TRIGGER_AND_Response: RESULT_OK,,,1614184192.5676901,1614184192.56716,low_stim,3.2748379707336404,9.23555909316592,FIX,1614184202.9409301,1614184202.9329,1614184206.20774,1,1,5,low_cue,1614184513.5611699,1614184513.55106,398.89517354965204,2,1614184114.6570802,low_stim,pain,1614184114.65589,4,3,15
1614184215.83931,1.58059358596802,1614184215.83781,1614184221.45865,1.3617863655090299,1614184221.45661,1614184231.8283901,6.49117612838745,1614184231.82722,1614184206.9684699,7.85073089599609,1614184206.9677699,0.0461091995239258,1614184214.83862,h033.png,1614184214.83743,high_cue,2.8693079948425297,39.5984075029918,FIX,1614184217.44125,1614184217.4384198,1614184220.30772,0,0,0,,,,0,0,Command Recieved: TRIGGER_AND_Response: RESULT_OK,,,1614184222.8659801,1614184222.86543,low_stim,1.7508614063262902,9.81478667205227,FIX,1614184238.34653,1614184238.34637,1614184240.0972302,4,1,5,high_cue,1614184513.5611699,1614184513.55106,398.89517354965204,2,1614184114.6570802,low_stim,pain,1614184114.65589,4,3,16
1614184248.2351801,1.58493709564209,1614184248.23346,1614184253.85339,6.267496347427371,1614184253.85227,1614184269.1256099,1.89365577697754,1614184269.12475,1614184242.3753,4.8539330959320095,1614184242.36456,0.0450220108032227,1614184247.23412,l043.png,1614184247.2330801,low_cue,2.4905014038085898,0.0,FIX,1614184249.8415,1614184249.83407,1614184252.32457,0,0,0,,,,0,0,Command Recieved: TRIGGER_AND_Response: RESULT_OK,,,1614184260.1657,1614184260.16537,med_stim,2.73465085029602,4.01830899359409,FIX,1614184271.04181,1614184271.02547,1614184273.76012,2,1,5,low_cue,1614184513.5611699,1614184513.55106,398.89517354965204,2,1614184114.6570802,med_stim,pain,1614184114.65589,4,3,17
1614184280.9305198,1.28916478157043,1614184280.92924,1614184286.24935,6.170475006103519,1614184286.24793,1614184301.4381301,3.78136301040649,1614184301.43704,1614184275.0593,4.87484264373779,1614184275.04366,0.0678679943084717,1614184279.92983,h053.png,1614184279.92886,high_cue,3.2951450347900404,28.536410234479,FIX,1614184282.2416,1614184282.2297301,1614184285.52487,0,0,0,,,,0,0,Command Recieved: TRIGGER_AND_Response: RESULT_OK,,,1614184292.4879801,1614184292.48711,high_stim,3.2865221500396697,22.1902888961225,FIX,1614184305.24189,1614184305.23848,1614184308.5250099,6,1,5,high_cue,1614184513.5611699,1614184513.55106,398.89517354965204,2,1614184114.6570802,high_stim,pain,1614184114.65589,4,3,18
1614184315.02671,1.39285945892334,1614184315.02554,1614184320.4455302,6.27413129806519,1614184320.44427,1614184335.7350302,9.88498377799988,1614184335.73342,1614184309.27424,4.7451689243316695,1614184309.27335,0.0423069000244141,1614184314.0260599,l015.png,1614184314.02516,low_cue,1.48404479026794,6.21337526527838,FIX,1614184316.42637,1614184316.42607,1614184317.91012,0,0,0,,,,0,0,Command Recieved: TRIGGER_AND_Response: RESULT_OK,,,1614184326.7620802,1614184326.76145,low_stim,2.43826961517334,15.0940628250366,FIX,1614184345.64216,1614184345.63719,1614184348.07545,1,1,5,low_cue,1614184513.5611699,1614184513.55106,398.89517354965204,2,1614184114.6570802,low_stim,pain,1614184114.65589,4,3,19
1614184352.02633,1.69545245170593,1614184352.02295,1614184357.7594,2.2599365711212203,1614184357.75846,1614184369.03047,6.78898358345032,1614184369.02942,1614184349.6592,1.3631172180175801,1614184349.65538,0.0405340194702148,1614184351.02614,l053.png,1614184351.02257,low_cue,,,FIX,1614184353.74069,1614184353.74027,,0,0,0,,,,0,0,Command Recieved: TRIGGER_AND_Response: RESULT_OK,,,1614184360.0606,1614184360.05981,high_stim,1.71753001213074,25.2256456981242,FIX,1614184375.83238,1614184375.83201,1614184377.54954,3,1,5,low_cue,1614184513.5611699,1614184513.55106,398.89517354965204,2,1614184114.6570802,high_stim,pain,1614184114.65589,4,3,20
1614184382.13567,2.1839978694915803,1614184382.1344,1614184388.35435,4.46496295928955,1614184388.35344,1614184401.82632,3.49317383766174,1614184401.8252301,1614184379.85944,1.26829695701599,1614184379.8502,0.0562360286712646,1614184381.1353,h015.png,1614184381.1340199,high_cue,1.53421354293823,36.04423500307271,FIX,1614184384.3353698,1614184384.3352401,1614184385.86945,0,0,0,,,,0,0,Command Recieved: TRIGGER_AND_Response: RESULT_OK,,,1614184392.87608,1614184392.87539,high_stim,2.3511798381805398,29.370404410219397,FIX,1614184405.32672,1614184405.32656,1614184407.67774,6,1,5,high_cue,1614184513.5611699,1614184513.55106,398.89517354965204,2,1614184114.6570802,high_stim,pain,1614184114.65589,4,3,21
1614184420.1331599,1.88620781898499,1614184420.13219,1614184426.05239,6.16728925704956,1614184426.05111,1614184441.22695,3.0948517322540297,1614184441.22355,1614184409.3601,9.77374982833862,1614184409.34475,0.0690228939056396,1614184419.13254,h027.png,1614184419.13181,high_cue,1.28418135643005,30.058125479486698,FIX,1614184422.03308,1614184422.0329099,1614184423.3171,0,0,0,,,,0,0,Command Recieved: TRIGGER_AND_Response: RESULT_OK,,,1614184432.28859,1614184432.28813,med_stim,1.85136270523071,11.446459092938499,FIX,1614184444.3261,1614184444.3247302,1614184446.17609,5,1,5,high_cue,1614184513.5611699,1614184513.55106,398.89517354965204,2,1614184114.6570802,med_stim,pain,1614184114.65589,4,3,22
1614184451.52865,1.39093136787415,1614184451.5274699,1614184456.94699,2.2722032070159903,1614184456.9462,1614184468.23508,4.68457698822021,1614184468.23382,1614184448.34336,2.17557859420776,1614184448.3429198,0.0506670475006104,1614184450.5278401,h010.png,1614184450.52709,high_cue,1.3840634822845501,20.5014258085662,FIX,1614184452.92824,1614184452.928,1614184454.3120599,0,0,0,,,,0,0,Command Recieved: TRIGGER_AND_Response: RESULT_OK,,,1614184459.2702801,1614184459.26973,low_stim,1.96757698059082,0.924045352772706,FIX,1614184472.93604,1614184472.93561,1614184474.9031901,4,1,5,high_cue,1614184513.5611699,1614184513.55106,398.89517354965204,2,1614184114.6570802,low_stim,pain,1614184114.65589,4,3,23
1614184486.82744,0.8941700458526608,1614184486.8242302,1614184491.76088,6.05895924568176,1614184491.75944,1614184506.8327,2.68655872344971,1614184506.83184,1614184476.96045,8.864693880081179,1614184476.95381,0.0639111995697021,1614184485.82727,l021.png,1614184485.82385,low_cue,1.6852316856384297,6.23833268963931,FIX,1614184487.7414901,1614184487.74125,1614184489.42648,0,0,0,,,,0,0,Command Recieved: TRIGGER_AND_Response: RESULT_OK,,,1614184497.88375,1614184497.88311,med_stim,2.36774086952209,10.7192752593735,FIX,1614184509.5330698,1614184509.5328698,1614184511.90061,2,1,5,low_cue,1614184513.5611699,1614184513.55106,398.89517354965204,2,1614184114.6570802,med_stim,pain,1614184114.65589,4,3,24
1613583389.14391,1.18213486671448,1613583389.1414099,1613583394.38683,4.64684724807739,1613583394.3767,1613583408.0359,5.19175338745117,1613583408.03179,1613583387.04318,1.0845553874969498,1613583387.04063,0.0492901802062988,1613583388.1433802,h032.png,1613583388.14104,high_cue,3.1014428138732897,42.0559536500124,FIX,1613583390.35978,1613583390.35854,1613583393.45998,0,0,0,,,,0,0,Command Recieved: TRIGGER_AND_Response: RESULT_OK,,,1613583399.08099,1613583399.0799,low_stim,2.98456478118896,50.37099469553571,FIX,1613583413.2515302,1613583413.25041,1613583416.2349699,4,2,5,high_cue,1613583783.0690598,1613583783.05498,398.794726133347,4,1613583384.2622302,low_stim,pain,1613583384.2602599,3,3,25
1613583418.8379,1.3877253532409701,1613583418.83582,1613583424.25618,7.769038200378421,1613583424.25451,1613583441.04603,3.0794434547424303,1613583441.04411,1613583417.28531,0.5559186935424799,1613583417.26857,0.0451591014862061,1613583417.83711,l014.png,1613583417.83545,low_cue,1.4007420539856001,22.5471776676405,FIX,1613583420.23747,1613583420.23635,1613583421.63709,0,0,0,,,,0,0,Command Recieved: TRIGGER_AND_Response: RESULT_OK,,,1613583432.0704699,1613583432.0693,med_stim,,,FIX,1613583444.1462,1613583444.1452599,,2,2,5,low_cue,1613583783.0690598,1613583783.05498,398.794726133347,4,1613583384.2622302,med_stim,pain,1613583384.2602599,3,3,26
1613583450.33548,1.1926474571228,1613583450.3309,1613583455.56867,0.557362079620361,1613583455.56619,1613583465.13815,1.48712635040283,1613583465.13642,1613583448.1854,1.14433336257935,1613583448.1801,0.0588569641113281,1613583449.33571,h033.png,1613583449.3305302,high_cue,2.38600492477417,44.1884993162881,FIX,1613583451.54881,1613583451.54802,1613583453.93403,0,0,0,,,,0,0,Command Recieved: TRIGGER_AND_Response: RESULT_OK,,,1613583456.18446,1613583456.18319,low_stim,1.66740083694458,30.4889404998309,FIX,1613583466.6377802,1613583466.63698,1613583468.3043802,4,2,5,high_cue,1613583783.0690598,1613583783.05498,398.794726133347,4,1613583384.2622302,low_stim,pain,1613583384.2602599,3,3,27
1613583472.74113,2.48429036140442,1613583472.73926,1613583479.2605,8.965193986892698,1613583479.25836,1613583497.23585,6.19182252883911,1613583497.23173,1613583470.66881,1.0692780017852799,1613583470.65515,0.0401358604431152,1613583471.74075,l023.png,1613583471.7388802,low_cue,1.66740679740906,9.309940174986039,FIX,1613583475.24119,1613583475.24019,1613583476.9076,0,0,0,,,,0,0,Command Recieved: TRIGGER_AND_Response: RESULT_OK,,,1613583488.2655199,1613583488.26435,med_stim,2.91787147521973,25.6410058243053,FIX,1613583503.43485,1613583503.43404,1613583506.3519099,2,2,5,low_cue,1613583783.0690598,1613583783.05498,398.794726133347,4,1613583384.2622302,med_stim,pain,1613583384.2602599,3,3,28
1613583509.5383,0.6872351169586178,1613583509.53631,1613583514.2735,0.552136659622192,1613583514.27141,1613583523.84379,6.18190002441406,1613583523.84165,1613583507.46947,1.07226085662842,1613583507.4522,0.069044828414917,1613583508.53773,h017.png,1613583508.53594,high_cue,2.3009700775146498,48.0984569671244,FIX,1613583510.25426,1613583510.25325,1613583512.55422,0,0,0,,,,0,0,Command Recieved: TRIGGER_AND_Response: RESULT_OK,,,1613583514.89377,1613583514.8931,high_stim,1.75661158561707,66.62047604722339,FIX,1613583530.0448,1613583530.0439599,1613583531.80057,6,2,5,high_cue,1613583783.0690598,1613583783.05498,398.794726133347,4,1613583384.2622302,high_stim,pain,1613583384.2602599,3,3,29
1613583535.6353,2.49417185783386,1613583535.62938,1613583542.16893,1.75840044021606,1613583542.16515,1613583552.9378,5.18771553039551,1613583552.93583,1613583534.0679998,0.562298774719238,1613583534.06213,0.0668909549713135,1613583534.63587,l028.png,1613583534.629,low_cue,2.3202691078186004,12.554295153873,FIX,1613583538.14803,1613583538.14698,1613583540.46725,0,0,0,,,,0,0,Command Recieved: TRIGGER_AND_Response: RESULT_OK,,,1613583543.99245,1613583543.99131,low_stim,2.08435368537903,6.72334996305192,FIX,1613583558.139,1613583558.13777,1613583560.22213,1,2,5,low_cue,1613583783.0690598,1613583783.05498,398.794726133347,4,1613583384.2622302,low_stim,pain,1613583384.2602599,3,3,30
1613583568.74327,1.1818232536315902,1613583568.74173,1613583573.9621,8.16321134567261,1613583573.96034,1613583591.1357,6.290139436721799,1613583591.13341,1613583562.16886,5.56851673126221,1613583562.15594,0.0356800556182861,1613583567.7434301,l049.png,1613583567.74135,low_cue,1.45067143440247,11.5806191822281,FIX,1613583569.94366,1613583569.94217,1613583571.3928401,0,0,0,,,,0,0,Command Recieved: TRIGGER_AND_Response: RESULT_OK,,,1613583582.16081,1613583582.15975,high_stim,2.2009503841400098,29.458404786665202,FIX,1613583597.43684,1613583597.43576,1613583599.63671,3,2,5,low_cue,1613583783.0690598,1613583783.05498,398.794726133347,4,1613583384.2622302,high_stim,pain,1613583384.2602599,3,3,31
1613583608.64195,1.18361020088196,1613583608.63994,1613583613.85985,0.564996957778931,1613583613.85855,1613583623.43545,6.29476070404053,1613583623.42879,1613583601.46886,6.1705203056335405,1613583601.45392,0.0948920249938965,1613583607.64139,l004.png,1613583607.63957,low_cue,1.70096468925476,9.04466653441065,FIX,1613583609.84177,1613583609.84039,1613583611.54135,0,0,0,,,,0,0,Command Recieved: TRIGGER_AND_Response: RESULT_OK,,,1613583614.51965,1613583614.5189302,low_stim,1.96940445899963,8.7282964135823,FIX,1613583629.73447,1613583629.7311401,1613583631.70054,1,2,5,low_cue,1613583783.0690598,1613583783.05498,398.794726133347,4,1613583384.2622302,low_stim,pain,1613583384.2602599,3,3,32
1613583644.53842,2.48689198493958,1613583644.53666,1613583651.05764,8.96779322624207,1613583651.05576,1613583669.03525,3.09442400932312,1613583669.02912,1613583633.76751,9.75854158401489,1613583633.76598,0.0424468517303467,1613583643.5378802,h045.png,1613583643.53629,high_cue,2.06763386726379,63.537813666646,FIX,1613583647.0385098,1613583647.03759,1613583649.10523,0,0,0,,,,0,0,Command Recieved: TRIGGER_AND_Response: RESULT_OK,,,1613583660.0680099,1613583660.06675,high_stim,3.1536605358123797,34.071609807394196,FIX,1613583672.1478698,1613583672.14695,1613583675.3006198,6,2,5,high_cue,1613583783.0690598,1613583783.05498,398.794726133347,4,1613583384.2622302,high_stim,pain,1613583384.2602599,3,3,33
1613583679.33554,1.3905794620513898,1613583679.33297,1613583684.75335,1.57189297676086,1613583684.7516599,1613583695.34046,1.4846098423004197,1613583695.3389401,1613583676.16893,2.1592957973480202,1613583676.16512,0.0499088764190674,1613583678.3357902,l055.png,1613583678.33259,low_cue,1.4673497676849399,1.6167903106732402,FIX,1613583680.7347698,1613583680.73349,1613583682.20084,0,0,0,,,,0,0,Command Recieved: TRIGGER_AND_Response: RESULT_OK,,,1613583686.37519,1613583686.37412,high_stim,2.86785197257996,9.61582694325655,FIX,1613583696.84086,1613583696.8395,1613583699.70735,3,2,5,low_cue,1613583783.0690598,1613583783.05498,398.794726133347,4,1613583384.2622302,high_stim,pain,1613583384.2602599,3,3,34
1613583716.3358,1.3934497833252,1613583716.3301,1613583721.7690198,3.25808930397034,1613583721.76546,1613583734.0385401,5.9868466854095495,1613583734.0367,1613583700.86873,14.4667773246765,1613583700.85766,0.0464670658111572,1613583715.33595,h004.png,1613583715.32973,high_cue,1.9701418876647903,34.2004841302685,FIX,1613583717.7483401,1613583717.7472901,1613583719.71743,0,0,0,,,,0,0,Command Recieved: TRIGGER_AND_Response: RESULT_OK,,,1613583725.07216,1613583725.07076,med_stim,,,FIX,1613583740.04008,1613583740.03894,,5,2,5,high_cue,1613583783.0690598,1613583783.05498,398.794726133347,4,1613583384.2622302,med_stim,pain,1613583384.2602599,3,3,35
1613583754.8355,0.995760202407837,1613583754.82779,1613583759.86875,6.96054935455322,1613583759.863,1613583775.8369699,3.1879265308380096,1613583775.83562,1613583744.07542,9.750663518905641,1613583744.07378,0.0458369255065918,1613583753.84571,h038.png,1613583753.84409,high_cue,1.95586323738098,60.92266850048329,FIX,1613583755.84582,1613583755.84483,1613583757.8007,0,0,0,,,,0,0,Command Recieved: TRIGGER_AND_Response: RESULT_OK,,,1613583766.87091,1613583766.86998,med_stim,3.0013880729675297,25.9478853220016,FIX,1613583779.0376,1613583779.03682,1613583782.0382,5,2,5,high_cue,1613583783.0690598,1613583783.05498,398.794726133347,4,1613583384.2622302,med_stim,pain,1613583384.2602599,3,3,36
1613582783.15285,0.5946054458618161,1613582783.1487598,1613582787.78602,5.859543085098269,1613582787.78382,1613582802.65816,2.9873290061950697,1613582802.65604,1613582775.8657,6.28200268745422,1613582775.86271,0.0888228416442871,1613582782.16741,h002.png,1613582782.16506,high_cue,2.78482389450073,23.8925023080266,FIX,1613582783.7681901,1613582783.76566,1613582786.5504801,0,0,0,,,,0,0,Command Recieved: TRIGGER_AND_Response: RESULT_OK,,,1613582793.74377,1613582793.74247,high_stim,2.8433258533477797,39.776052403731605,FIX,1613582805.66816,1613582805.65716,1613582808.5004802,6,1,5,high_cue,1613583172.0848598,1613583172.07713,398.99587821960404,3,1613582773.0824099,high_stim,pain,1613582773.08126,3,3,37
1613582819.56895,0.881025791168213,1613582819.56234,1613582824.48496,7.262525081634519,1613582824.48084,1613582840.7557,7.789789199829099,1613582840.75358,1613582809.69411,8.85252285003662,1613582809.6919901,0.0681390762329102,1613582818.56367,l040.png,1613582818.56197,low_cue,2.90449810028076,4.13467137373642,FIX,1613582820.46361,1613582820.46268,1613582823.3671699,0,0,0,,,,0,0,Command Recieved: TRIGGER_AND_Response: RESULT_OK,,,1613582831.81324,1613582831.81223,low_stim,3.1849327087402304,8.29241291009267,FIX,1613582848.56797,1613582848.55649,1613582851.74142,1,1,5,low_cue,1613583172.0848598,1613583172.07713,398.99587821960404,3,1613582773.0824099,low_stim,pain,1613582773.08126,3,3,38
1613582861.26358,1.2821409702301,1613582861.26122,1613582866.58583,8.96349143981934,1613582866.57987,1613582884.5555,6.89012098312378,1613582884.55324,1613582852.58482,7.67006230354309,1613582852.57465,0.0440258979797363,1613582860.2627401,h033.png,1613582860.26085,high_cue,2.3889620304107697,20.6115912802361,FIX,1613582862.56795,1613582862.56171,1613582864.95067,0,0,0,,,,0,0,Command Recieved: TRIGGER_AND_Response: RESULT_OK,,,1613582875.58866,1613582875.58792,low_stim,2.91144204139709,10.4914770123316,FIX,1613582891.4679198,1613582891.4558198,1613582894.36726,4,1,5,high_cue,1613583172.0848598,1613583172.07713,398.99587821960404,3,1613582773.0824099,low_stim,pain,1613582773.08126,3,3,39
1613582903.1621199,0.8831820487976071,1613582903.16018,1613582908.0859802,1.06468176841736,1613582908.07868,1613582918.15231,3.4942641258239706,1613582918.1491,1613582895.49241,6.653814792633059,1613582895.49066,0.0354750156402588,1613582902.16162,h020.png,1613582902.15981,high_cue,1.9901359081268302,40.4519575908746,FIX,1613582904.06813,1613582904.06052,1613582906.05065,0,0,0,,,,0,0,Command Recieved: TRIGGER_AND_Response: RESULT_OK,,,1613582909.18092,1613582909.17975,med_stim,2.75133419036865,43.53951748815639,FIX,1613582921.6678698,1613582921.6670802,1613582924.4184198,5,1,5,high_cue,1613583172.0848598,1613583172.07713,398.99587821960404,3,1613582773.0824099,med_stim,pain,1613582773.08126,3,3,40
1613582929.45635,2.19004321098328,1613582929.45332,1613582935.6905699,5.85438537597656,1613582935.68898,1613582950.5701802,6.78217315673828,1613582950.5611901,1613582925.70363,2.7596802711486803,1613582925.68525,0.0780000686645508,1613582928.46959,l032.png,1613582928.45295,low_cue,2.93457698822021,3.0006614134621503,FIX,1613582931.67243,1613582931.67081,1613582934.60539,0,0,0,,,,0,0,Command Recieved: TRIGGER_AND_Response: RESULT_OK,,,1613582941.62364,1613582941.62221,low_stim,2.80346250534058,22.530979230465398,FIX,1613582957.36811,1613582957.3637302,1613582960.16719,1,1,5,low_cue,1613583172.0848598,1613583172.07713,398.99587821960404,3,1613582773.0824099,low_stim,pain,1613582773.08126,3,3,41
1613582963.65217,1.6939580440521202,1613582963.64941,1613582969.3860002,1.3584878444671598,1613582969.38488,1613582979.7571,1.4879531860351598,1613582979.75541,1613582961.40195,1.2456569671630902,1613582961.3985698,0.0390110015869141,1613582962.6520698,l031.png,1613582962.64903,low_cue,1.28409123420715,0.0,FIX,1613582965.36795,1613582965.36671,1613582966.6508,0,0,0,,,,0,0,Command Recieved: TRIGGER_AND_Response: RESULT_OK,,,1613582970.7841802,1613582970.78308,high_stim,3.88499784469604,37.711047676389896,FIX,1613582981.26802,1613582981.25597,1613582985.14097,3,1,5,low_cue,1613583172.0848598,1613583172.07713,398.99587821960404,3,1613582773.0824099,high_stim,pain,1613582773.08126,3,3,42
1613582988.16065,1.28481793403625,1613582988.15855,1613582993.4788198,1.6661677360534701,1613582993.4772,1613583004.15173,1.59552335739136,1613583004.14784,1613582985.71861,1.4365820884704599,1613582985.7076302,0.0383141040802002,1613582987.15985,l038.png,1613582987.15817,low_cue,2.05825185775757,6.95295746817392,FIX,1613582989.46804,1613582989.4590302,1613582991.51728,0,0,0,,,,0,0,Command Recieved: TRIGGER_AND_Response: RESULT_OK,,,1613582995.1830199,1613582995.1822,med_stim,1.9520909786224399,21.630886836517895,FIX,1613583005.76809,1613583005.76511,1613583007.7172,2,1,5,low_cue,1613583172.0848598,1613583172.07713,398.99587821960404,3,1613582773.0824099,med_stim,pain,1613582773.08126,3,3,43
1613583013.05308,1.3922014236450202,1613583013.0511599,1613583018.80472,0.740057945251465,1613583018.80331,1613583028.55879,6.18642163276672,1613583028.55694,1613583009.7846901,2.2610423564910898,1613583009.7832801,0.0689480304718018,1613583012.05244,l044.png,1613583012.05079,low_cue,3.8016095161438,10.4077113124901,FIX,1613583014.4682,1613583014.45169,1613583018.2533,0,0,0,,,,0,0,Command Recieved: TRIGGER_AND_Response: RESULT_OK,,,1613583019.61339,1613583019.61275,med_stim,1.9746770858764602,9.91494567847495,FIX,1613583034.76782,1613583034.75926,1613583036.7339401,2,1,5,low_cue,1613583172.0848598,1613583172.07713,398.99587821960404,3,1613582773.0824099,med_stim,pain,1613582773.08126,3,3,44
1613583042.06378,2.18138527870178,1613583042.06198,1613583048.28555,4.462397813797,1613583048.2809699,1613583061.75469,6.190707445144651,1613583061.75266,1613583038.7853198,2.2670278549194305,1613583038.7774198,0.044579029083252,1613583041.06369,l005.png,1613583041.06161,low_cue,3.2377941608428995,15.1729153455253,FIX,1613583044.26802,1613583044.2628,1613583047.5006,0,0,0,,,,0,0,Command Recieved: TRIGGER_AND_Response: RESULT_OK,,,1613583052.78912,1613583052.7883801,high_stim,2.20109224319458,29.8590161649231,FIX,1613583067.9681098,1613583067.95497,1613583070.15606,3,1,5,low_cue,1613583172.0848598,1613583172.07713,398.99587821960404,3,1613582773.0824099,high_stim,pain,1613582773.08126,3,3,45
1613583079.06106,2.08425211906433,1613583079.05911,1613583085.1798599,2.96530389785767,1613583085.17806,1613583097.15204,4.49417304992676,1613583097.14919,1613583071.9854698,6.071069955825809,1613583071.97314,0.0459980964660645,1613583078.0608,h001.png,1613583078.0587401,high_cue,2.7740671634674103,59.1947376127909,FIX,1613583081.16808,1613583081.1599,1613583083.93396,0,0,0,,,,0,0,Command Recieved: TRIGGER_AND_Response: RESULT_OK,,,1613583088.19135,1613583088.1900802,low_stim,3.5682420730590803,6.182930165948259,FIX,1613583101.66847,1613583101.66754,1613583105.23579,4,1,5,high_cue,1613583172.0848598,1613583172.07713,398.99587821960404,3,1613582773.0824099,low_stim,pain,1613582773.08126,3,3,46
1613583113.2569,1.68816733360291,1613583113.2552,1613583118.97596,4.46936845779419,1613583118.974,1613583132.4654698,5.481005191802981,1613583132.46236,1613583105.8041,6.44195747375488,1613583105.80242,0.0641160011291504,1613583112.2569199,h035.png,1613583112.2548199,high_cue,1.5841219425201398,63.434948822922,FIX,1613583114.96887,1613583114.95583,1613583116.53995,0,0,0,,,,0,0,Command Recieved: TRIGGER_AND_Response: RESULT_OK,,,1613583123.50869,1613583123.50793,med_stim,3.25286173820496,34.7831203702733,FIX,1613583137.96808,1613583137.96441,1613583141.21727,5,1,5,high_cue,1613583172.0848598,1613583172.07713,398.99587821960404,3,1613582773.0824099,med_stim,pain,1613582773.08126,3,3,47
1613583144.1520698,1.69331192970276,1613583144.15005,1613583149.88689,8.65784120559692,1613583149.88552,1613583167.56108,0.48458218574523904,1613583167.5587802,1613583141.98469,1.16185593605042,1613583141.9825802,0.057819128036499,1613583143.15204,h056.png,1613583143.1496801,high_cue,1.86763954162598,37.1910075397043,FIX,1613583145.86842,1613583145.8673599,1613583147.735,0,0,0,,,,0,0,Command Recieved: TRIGGER_AND_Response: RESULT_OK,,,1613583158.60314,1613583158.6019,high_stim,2.3750207424163796,46.974934010881995,FIX,1613583168.06783,1613583168.05897,1613583170.43399,6,1,5,high_cue,1613583172.0848598,1613583172.07713,398.99587821960404,3,1613582773.0824099,high_stim,pain,1613582773.08126,3,3,48
1611769409.15911,1.388991355896,1611769409.1576,1611769414.61087,4.53694367408752,1611769414.60965,1611769428.1677,2.3818509578704803,1611769428.16474,1611769406.2617302,1.8916721343994096,1611769406.25651,0.0594689846038818,1611769408.1602302,h014.png,1611769408.15722,high_cue,2.7513885498046897,35.049373312048395,,1611769410.5926,1611769410.59147,1611769413.34286,0,0,0,,,,0,0,,,,1611769419.22193,1611769419.2209,low_stim,3.02474308013916,31.516939972594738,,1611769430.5666199,1611769430.56564,1611769433.5903802,4,1,5,high_cue,1611769801.5931401,1611769801.58855,398.11661553382896,1,1611769403.4775698,low_stim,pain,1611769403.47193,1,3,49
1611769437.47061,0.7783553600311279,1611769437.46823,1611769442.2923698,1.0598771572113,1611769442.28671,1611769452.35952,4.18942594528198,1611769452.3571599,1611769434.7423,1.7140929698944098,1611769434.73387,0.0700352191925049,1611769436.4703,l010.png,1611769436.46786,low_cue,3.1051139831543,6.669619842312335,,1611769438.26988,1611769438.2685301,1611769441.37365,0,0,0,,,,0,0,,,,1611769443.42,1611769443.41784,low_stim,3.0349357128143297,66.67464911902414,,1611769456.5596,1611769456.5587401,1611769459.5936801,1,1,5,low_cue,1611769801.5931401,1611769801.58855,398.11661553382896,1,1611769403.4775698,low_stim,pain,1611769403.47193,1,3,50
1611769462.46261,1.08562731742859,1611769462.46096,1611769467.58166,2.5670394897460898,1611769467.57955,1611769479.15902,2.5960233211517303,1611769479.15057,1611769460.5958,0.854148626327515,1611769460.59359,0.0477478504180908,1611769461.46205,l053.png,1611769461.46058,low_cue,2.00133538246155,10.222168633636123,,1611769463.57554,1611769463.56137,1611769465.56271,0,0,0,,,,0,0,,,,1611769470.1963599,1611769470.19508,med_stim,2.53947257995605,20.609692937532067,,1611769481.76914,1611769481.76822,1611769484.3076901,2,1,5,low_cue,1611769801.5931401,1611769801.58855,398.11661553382896,1,1611769403.4775698,med_stim,pain,1611769403.47193,1,3,51
1611769487.85809,2.0927526950836204,1611769487.85384,1611769493.9753,9.37378764152527,1611769493.9728,1611769512.3643901,2.28353929519653,1611769512.36305,1611769485.80899,1.04471182823181,1611769485.8030698,0.0695011615753174,1611769486.8592901,l034.png,1611769486.85346,low_cue,1.86924743652344,57.140247960278224,,1611769489.95786,1611769489.9546301,1611769491.82387,0,0,0,,,,0,0,,,,1611769503.4179802,1611769503.41674,high_stim,1.88431191444397,66.67858913961436,,1611769514.67462,1611769514.66392,1611769516.5482302,3,1,5,low_cue,1611769801.5931401,1611769801.58855,398.11661553382896,1,1611769403.4775698,high_stim,pain,1611769403.47193,1,3,52
1611769520.26856,1.38056898117065,1611769520.2660198,1611769525.69329,1.36186170578003,1611769525.68473,1611769536.06029,2.2912964820861803,1611769536.05529,1611769518.7018,0.5488290786743161,1611769518.6987698,0.0562281608581543,1611769519.26759,h053.png,1611769519.26565,high_cue,2.04075646400452,26.360058207353116,,1611769521.6679401,1611769521.66655,1611769523.7073,0,0,0,,,,0,0,,,,1611769527.10625,1611769527.10399,med_stim,1.9677963256835904,3.000661413462149,,1611769538.35792,1611769538.35616,1611769540.32395,5,1,5,high_cue,1611769801.5931401,1611769801.58855,398.11661553382896,1,1611769403.4775698,med_stim,pain,1611769403.47193,1,3,53
1611769544.0603,1.08828663825989,1611769544.0583,1611769549.17803,5.46969509124756,1611769549.1768901,1611769563.6672802,1.38091206550598,1611769563.6656802,1611769542.4096801,0.639761686325073,1611769542.40768,0.0401439666748047,1611769543.05995,h009.png,1611769543.05793,high_cue,2.48440551757812,80.2333206042273,,1611769545.15965,1611769545.15872,1611769547.6431198,0,0,0,,,,0,0,,,,1611769554.68829,1611769554.68733,high_stim,2.5178496837616,6.467458927791518,,1611769565.06727,1611769565.0662,1611769567.58405,6,1,5,high_cue,1611769801.5931401,1611769801.58855,398.11661553382896,1,1611769403.4775698,high_stim,pain,1611769403.47193,1,3,54
1611769572.05914,1.09442639350891,1611769572.05216,1611769577.19287,6.759160995483401,1611769577.1874301,1611769592.9619699,12.1865620613098,1611769592.96003,1611769569.09231,1.96315050125122,1611769569.0843801,0.0544540882110596,1611769571.0590599,h001.png,1611769571.05179,high_cue,2.13815522193909,21.501434324047903,,1611769573.17031,1611769573.16925,1611769575.3074,0,0,0,,,,0,0,,,,1611769584.00235,1611769584.00158,low_stim,2.8512959480285605,29.687181639193696,,1611769605.16547,1611769605.16462,1611769608.01591,4,1,5,high_cue,1611769801.5931401,1611769801.58855,398.11661553382896,1,1611769403.4775698,low_stim,pain,1611769403.47193,1,3,55
1611769617.85922,1.09386444091797,1611769617.85272,1611769622.9923198,5.05861020088196,1611769622.9879901,1611769637.0617301,5.5866394042968786,1611769637.05995,1611769609.1923199,7.66469955444336,1611769609.1828,0.0319628715515137,1611769616.85935,h044.png,1611769616.85235,high_cue,2.03774213790894,80.46153726601386,,1611769618.97094,1611769618.96981,1611769621.00755,0,0,0,,,,0,0,,,,1611769628.08079,1611769628.0792801,high_stim,2.31777501106262,95.31989391780684,,1611769642.66334,1611769642.66206,1611769644.97983,6,1,5,high_cue,1611769801.5931401,1611769801.58855,398.11661553382896,1,1611769403.4775698,high_stim,pain,1611769403.47193,1,3,56
1611769648.56637,2.08231019973755,1611769648.56428,1611769654.6849,4.56334280967712,1611769654.68325,1611769668.25895,4.29156589508057,1611769668.25502,1611769646.69259,0.8672432899475101,1611769646.6802402,0.0315630435943604,1611769647.5657802,l051.png,1611769647.5639,low_cue,1.93426418304443,59.1150546692714,,1611769650.66644,1611769650.6650698,1611769652.5993302,0,0,0,,,,0,0,,,,1611769659.2803,1611769659.2788599,low_stim,2.13438057899475,79.0091338033945,,1611769672.55841,1611769672.5566401,1611769674.69102,1,1,5,low_cue,1611769801.5931401,1611769801.58855,398.11661553382896,1,1611769403.4775698,low_stim,pain,1611769403.47193,1,3,57
1611769679.5609698,2.0873122215271,1611769679.5592802,1611769685.68032,1.06834244728088,1611769685.67825,1611769695.76752,4.18121385574341,1611769695.7653801,1611769676.57655,1.9725410938262904,1611769676.5748198,0.040510892868042,1611769678.56048,l019.png,1611769678.5589,low_cue,1.75091814994812,35.049373312048395,,1611769681.66099,1611769681.66007,1611769683.41098,0,0,0,,,,0,0,,,,1611769686.7883198,1611769686.7876,med_stim,2.8741855621337904,51.05173210879402,,1611769699.96793,1611769699.96696,1611769702.84114,2,1,5,low_cue,1611769801.5931401,1611769801.58855,398.11661553382896,1,1611769403.4775698,med_stim,pain,1611769403.47193,1,3,58
1611769722.05971,1.3879849910736102,1611769722.0586,1611769727.47913,5.56927609443665,1611769727.47731,1611769742.05947,2.69712495803833,1611769742.04946,1611769703.99246,17.0624496936798,1611769703.98514,0.0573160648345947,1611769721.0595,l052.png,1611769721.0582302,low_cue,1.9508843421936,86.53874612204584,,1611769723.46013,1611769723.45913,1611769725.4100199,0,0,0,,,,0,0,,,,1611769733.1056302,1611769733.10447,high_stim,3.45748019218445,64.56631625360448,,1611769744.76836,1611769744.76715,1611769748.22463,3,1,5,low_cue,1611769801.5931401,1611769801.58855,398.11661553382896,1,1611769403.4775698,high_stim,pain,1611769403.47193,1,3,59
1611769766.76079,2.08782291412354,1611769766.75877,1611769772.87937,6.06885170936584,1611769772.8777401,1611769787.95982,9.59651017189026,1611769787.9500802,1611769748.79289,16.9621634483337,1611769748.78533,0.0396599769592285,1611769765.7601,h039.png,1611769765.75839,high_cue,1.95083260536194,9.91494567847495,,1611769768.86043,1611769768.85956,1611769770.81039,0,0,0,,,,0,0,,,,1611769778.98749,1611769778.9867196,med_stim,3.2545540332794203,21.501434324047903,,1611769797.5718699,1611769797.57037,1611769800.82492,5,1,5,high_cue,1611769801.5931401,1611769801.58855,398.11661553382896,1,1611769403.4775698,med_stim,pain,1611769403.47193,1,3,60
1611771844.3534696,1.7870376110076898,1611771844.34297,1611771850.18042,4.7514960765838605,1611771850.17851,1611771863.9530401,4.27961564064026,1611771863.95039,1611771840.74402,2.59009838104248,1611771840.74161,0.0490689277648926,1611771843.3540301,h006.png,1611771843.34259,high_cue,1.25734090805054,35.049373312048395,,1611771846.169,1611771846.16033,1611771847.41767,0,0,0,,,,0,0,,,,1611771854.9830198,1611771854.98173,low_stim,2.58459043502808,31.516939972594738,,1611771868.25326,1611771868.25202,1611771870.83661,4,2,5,high_cue,1611772236.77149,1611772236.75808,398.79131913185097,6,1611771837.9689698,low_stim,pain,1611771837.96676,1,3,61
1611771874.03958,1.3924653530120803,1611771874.03755,1611771879.47466,4.75707268714905,1611771879.47294,1611771893.24676,3.48519420623779,1611771893.2448199,1611771872.28636,0.760870933532715,1611771872.27021,0.0558030605316162,1611771873.05312,h004.png,1611771873.03717,high_cue,1.61757183074951,6.669619842312335,,1611771875.4558802,1611771875.45475,1611771877.07232,0,0,0,,,,0,0,,,,1611771884.28755,1611771884.28636,high_stim,3.02186489105225,66.67464911902414,,1611771896.75231,1611771896.74614,1611771899.768,6,2,5,high_cue,1611772236.77149,1611772236.75808,398.79131913185097,6,1611771837.9689698,high_stim,pain,1611771837.96676,1,3,62
1611771907.6362698,1.39641427993774,1611771907.63359,1611771913.0708,4.26102709770203,1611771913.06898,1611771926.34201,3.4893364906311,1611771926.3406699,1611771900.7695198,5.86656856536865,1611771900.7643301,0.0616030693054199,1611771906.65305,h012.png,1611771906.64989,high_cue,1.5341119766235398,10.222168633636123,,1611771909.05227,1611771909.0508,1611771910.58491,0,0,0,,,,0,0,,,,1611771917.3933198,1611771917.39236,med_stim,1.8929207324981696,20.609692937532067,,1611771929.8524199,1611771929.842,1611771931.73492,5,2,5,high_cue,1611772236.77149,1611772236.75808,398.79131913185097,6,1611771837.9689698,med_stim,pain,1611771837.96676,1,3,63
1611771935.54589,0.485853433609009,1611771935.54416,1611771940.06431,1.5674762725830098,1611771940.06253,1611771950.65139,4.980138778686519,1611771950.64987,1611771933.86969,0.670790433883667,1611771933.8601902,0.0438330173492432,1611771934.55322,l013.png,1611771934.54378,low_cue,1.4573051929473897,57.140247960278224,,1611771936.05247,1611771936.04435,1611771937.50165,0,0,0,,,,0,0,,,,1611771941.67545,1611771941.6744301,low_stim,2.5012357234954803,66.67858913961436,,1611771955.6530302,1611771955.6517599,1611771958.153,1,2,5,low_cue,1611772236.77149,1611772236.75808,398.79131913185097,6,1611771837.9689698,low_stim,pain,1611771837.96676,1,3,64
1611771962.93965,1.79215478897095,1611771962.93786,1611771968.75901,1.5732870101928702,1611771968.7567198,1611771979.34589,10.2859470844269,1611771979.34406,1611771959.67172,2.26110148429871,1611771959.66995,0.0578892230987549,1611771961.95369,h024.png,1611771961.93748,high_cue,1.96759939193726,26.360058207353116,,1611771964.75263,1611771964.73854,1611771966.70614,0,0,0,,,,0,0,,,,1611771970.38971,1611771970.38853,high_stim,2.15397620201111,3.000661413462149,,1611771989.65294,1611771989.64796,1611771991.80194,6,2,5,high_cue,1611772236.77149,1611772236.75808,398.79131913185097,6,1611771837.9689698,high_stim,pain,1611771837.96676,1,3,65
1611772006.2393,1.79243874549866,1611772006.2375698,1611772012.05792,4.3735716342926,1611772012.05644,1611772025.44689,5.38517260551453,1611772025.44484,1611771993.67007,11.5648446083069,1611771993.66615,0.0358648300170898,1611772005.2393801,h020.png,1611772005.23719,high_cue,1.7842085361480702,80.2333206042273,,1611772008.05285,1611772008.03825,1611772009.82246,0,0,0,,,,0,0,,,,1611772016.46753,1611772016.46645,low_stim,1.52191805839539,6.467458927791518,,1611772030.85306,1611772030.84688,1611772032.3688,4,2,5,high_cue,1611772236.77149,1611772236.75808,398.79131913185097,6,1611771837.9689698,low_stim,pain,1611771837.96676,1,3,66
1611772042.23664,0.8954904079437259,1611772042.23452,1611772047.17124,9.36028933525085,1611772047.16972,1611772065.54567,1.08667087554932,1611772065.54334,1611772034.87042,6.36621332168579,1611772034.8650699,0.034264087677002,1611772041.25291,l036.png,1611772041.25082,low_cue,1.76738953590393,21.501434324047903,,1611772043.153,1611772043.15153,1611772044.91892,0,0,0,,,,0,0,,,,1611772056.56564,1611772056.56478,med_stim,2.07517647743225,29.687181639193696,,1611772066.65331,1611772066.64375,1611772068.71893,2,2,5,low_cue,1611772236.77149,1611772236.75808,398.79131913185097,6,1611771837.9689698,med_stim,pain,1611771837.96676,1,3,67
1611772077.6498199,2.18209290504456,1611772077.64792,1611772083.87081,8.963074445724489,1611772083.86693,1611772101.8424199,3.88961100578308,1611772101.8404,1611772070.67018,5.96902132034302,1611772070.66194,0.0282700061798096,1611772076.64932,l016.png,1611772076.64754,low_cue,2.08688855171204,80.46153726601386,,1611772079.8533401,1611772079.84875,1611772081.93564,0,0,0,,,,0,0,,,,1611772092.85995,1611772092.8591402,high_stim,2.21083521842957,95.31989391780684,,1611772105.75358,1611772105.74187,1611772107.95271,3,2,5,low_cue,1611772236.77149,1611772236.75808,398.79131913185097,6,1611771837.9689698,high_stim,pain,1611771837.96676,1,3,68
1611772115.84745,2.1843147277832,1611772115.8457,1611772122.0669599,4.36529612541199,1611772122.06472,1611772135.4381402,8.193570852279661,1611772135.43644,1611772109.7709801,5.07086133956909,1611772109.76006,0.0631120204925537,1611772114.84737,l002.png,1611772114.84532,low_cue,2.13943123817444,59.1150546692714,,1611772118.05346,1611772118.04653,1611772120.18596,0,0,0,,,,0,0,,,,1611772126.49566,1611772126.49395,med_stim,2.38434290885925,79.0091338033945,,1611772143.65365,1611772143.63954,1611772146.02388,2,2,5,low_cue,1611772236.77149,1611772236.75808,398.79131913185097,6,1611771837.9689698,med_stim,pain,1611771837.96676,1,3,69
1611772151.24424,1.78759407997131,1611772151.24242,1611772157.06286,4.2687284946441695,1611772157.06128,1611772170.35164,3.18037033081055,1611772170.3496401,1611772147.67121,2.57318139076233,1611772147.65773,0.0450620651245117,1611772150.24366,l028.png,1611772150.2420402,low_cue,2.0097634792327903,35.049373312048395,,1611772153.0536,1611772153.0431,1611772155.05286,0,0,0,,,,0,0,,,,1611772161.3765302,1611772161.3756099,low_stim,2.21870493888855,51.05173210879402,,1611772173.5536401,1611772173.55085,1611772175.7695599,1,2,5,low_cue,1611772236.77149,1611772236.75808,398.79131913185097,6,1611771837.9689698,low_stim,pain,1611771837.96676,1,3,70
1611772186.34078,0.6909911632537838,1611772186.33902,1611772191.0596,1.57254004478455,1611772191.0574698,1611772201.6466599,3.1852021217346205,1611772201.64481,1611772177.57126,7.76195526123047,1611772177.56904,0.0736780166625977,1611772185.34043,h041.png,1611772185.33864,high_cue,1.33410835266113,86.53874612204584,,1611772187.05354,1611772187.0392802,1611772188.37339,0,0,0,,,,0,0,,,,1611772192.70585,1611772192.70467,med_stim,2.2570250034332298,64.56631625360448,,1611772204.8537,1611772204.84602,1611772207.10304,5,2,5,high_cue,1611772236.77149,1611772236.75808,398.79131913185097,6,1611771837.9689698,med_stim,pain,1611771837.96676,1,3,71
1611772212.15084,1.48123121261597,1611772212.14878,1611772217.70433,3.82913208007812,1611772217.70088,1611772230.54031,2.19094514846802,1611772230.53907,1611772208.87145,2.2667045593261697,1611772208.8642,0.0561339855194092,1611772211.15059,l038.png,1611772211.1484,low_cue,3.5038812160491903,9.91494567847495,,1611772213.65403,1611772213.64935,1611772217.1532302,0,0,0,,,,0,0,,,,1611772221.5875401,1611772221.58669,high_stim,2.15103554725647,21.501434324047903,,1611772232.7537,1611772232.7399,1611772234.8909302,3,2,5,low_cue,1611772236.77149,1611772236.75808,398.79131913185097,6,1611771837.9689698,high_stim,pain,1611771837.96676,1,3,72
