onset	duration	trial_type	trial_index	cue	stimulusintensity	rating_value	rating_glmslabel	rating_value_fillna	rating_glmslabel_fillna	rating_mouseonset	rating_mousedur	stim_file	onset_ttl1	onset_ttl2	onset_ttl3	onset_ttl4	stimulus_delivery_success
5.38	1.0	cue	1	high_cue	n/a	n/a	n/a	n/a	n/a	n/a	n/a	h006.png	n/a	n/a	n/a	n/a	n/a
35.1	1.0	cue	2	high_cue	n/a	n/a	n/a	n/a	n/a	n/a	n/a	h004.png	n/a	n/a	n/a	n/a	n/a
68.69	1.0	cue	3	high_cue	n/a	n/a	n/a	n/a	n/a	n/a	n/a	h012.png	n/a	n/a	n/a	n/a	n/a
96.59	1.0	cue	4	low_cue	n/a	n/a	n/a	n/a	n/a	n/a	n/a	l013.png	n/a	n/a	n/a	n/a	n/a
124.0	1.0	cue	5	high_cue	n/a	n/a	n/a	n/a	n/a	n/a	n/a	h024.png	n/a	n/a	n/a	n/a	n/a
167.3	1.0	cue	6	high_cue	n/a	n/a	n/a	n/a	n/a	n/a	n/a	h020.png	n/a	n/a	n/a	n/a	n/a
203.29	1.0	cue	7	low_cue	n/a	n/a	n/a	n/a	n/a	n/a	n/a	l036.png	n/a	n/a	n/a	n/a	n/a
238.69	1.0	cue	8	low_cue	n/a	n/a	n/a	n/a	n/a	n/a	n/a	l016.png	n/a	n/a	n/a	n/a	n/a
276.89	1.0	cue	9	low_cue	n/a	n/a	n/a	n/a	n/a	n/a	n/a	l002.png	n/a	n/a	n/a	n/a	n/a
312.28	1.0	cue	10	low_cue	n/a	n/a	n/a	n/a	n/a	n/a	n/a	l028.png	n/a	n/a	n/a	n/a	n/a
347.4	1.0	cue	11	high_cue	n/a	n/a	n/a	n/a	n/a	n/a	n/a	h041.png	n/a	n/a	n/a	n/a	n/a
373.19	1.0	cue	12	low_cue	n/a	n/a	n/a	n/a	n/a	n/a	n/a	l038.png	n/a	n/a	n/a	n/a	n/a
8.2	2.24	expectrating	1	high_cue	n/a	44.0	Strong	44.0	Strong	0.33	1.91	h006.png	n/a	n/a	n/a	n/a	n/a
37.5	2.93	expectrating	2	high_cue	n/a	43.53	Strong	43.53	Strong	0.52	2.42	h004.png	n/a	n/a	n/a	n/a	n/a
71.09	1.9	expectrating	3	high_cue	n/a	57.14	Strong	57.14	Strong	0.45	1.45	h012.png	n/a	n/a	n/a	n/a	n/a
98.09	2.11	expectrating	4	low_cue	n/a	34.27	Strong	34.27	Strong	0.52	1.59	l013.png	n/a	n/a	n/a	n/a	n/a
126.8	3.25	expectrating	5	high_cue	n/a	64.77	Very Strong	64.77	Very Strong	0.33	2.92	h024.png	n/a	n/a	n/a	n/a	n/a
170.1	2.4	expectrating	6	high_cue	n/a	61.94	Strong	61.94	Strong	0.28	2.12	h020.png	n/a	n/a	n/a	n/a	n/a
205.19	2.48	expectrating	7	low_cue	n/a	23.79	Moderate	23.79	Moderate	0.47	2.02	l036.png	n/a	n/a	n/a	n/a	n/a
241.89	2.05	expectrating	8	low_cue	n/a	26.46	Moderate	26.46	Moderate	0.05	2.0	l016.png	n/a	n/a	n/a	n/a	n/a
280.09	1.49	expectrating	9	low_cue	n/a	11.9	Moderate	11.9	Moderate	0.18	1.31	l002.png	n/a	n/a	n/a	n/a	n/a
315.1	2.62	expectrating	10	low_cue	n/a	8.16	Weak	8.16	Weak	0.6	2.02	l028.png	n/a	n/a	n/a	n/a	n/a
349.1	1.73	expectrating	11	high_cue	n/a	52.52	Strong	52.52	Strong	0.6	1.13	h041.png	n/a	n/a	n/a	n/a	n/a
375.69	2.45	expectrating	12	low_cue	n/a	21.63	Moderate	21.63	Moderate	0.37	2.09	l038.png	n/a	n/a	n/a	n/a	n/a
17.04	28.94	stimulus	1	high_cue	low_stim	n/a	n/a	n/a	n/a	n/a	n/a	48c	17.04	20.54	25.54	28.94	success
46.33	59.16	stimulus	2	high_cue	high_stim	n/a	n/a	n/a	n/a	n/a	n/a	50c	46.33	50.34	55.34	59.15	success
79.42	91.79	stimulus	3	high_cue	med_stim	n/a	n/a	n/a	n/a	n/a	n/a	49c	79.42	83.18	88.18	91.79	success
103.74	115.64	stimulus	4	low_cue	low_stim	n/a	n/a	n/a	n/a	n/a	n/a	48c	103.74	107.24	112.24	115.64	success
132.43	145.25	stimulus	5	high_cue	high_stim	n/a	n/a	n/a	n/a	n/a	n/a	50c	132.43	136.44	141.44	145.25	success
178.51	190.42	stimulus	6	high_cue	low_stim	n/a	n/a	n/a	n/a	n/a	n/a	48c	178.51	182.01	187.01	190.41	success
218.64	231.0	stimulus	7	low_cue	med_stim	n/a	n/a	n/a	n/a	n/a	n/a	49c	218.64	222.4	227.4	231.01	success
254.91	267.74	stimulus	8	low_cue	high_stim	n/a	n/a	n/a	n/a	n/a	n/a	50c	254.91	258.92	263.92	267.73	success
288.54	300.9	stimulus	9	low_cue	med_stim	n/a	n/a	n/a	n/a	n/a	n/a	49c	288.54	292.3	297.3	300.91	success
323.41	335.32	stimulus	10	low_cue	low_stim	n/a	n/a	n/a	n/a	n/a	n/a	48c	323.41	326.91	331.91	335.31	success
354.72	367.09	stimulus	11	high_cue	med_stim	n/a	n/a	n/a	n/a	n/a	n/a	49c	354.72	358.48	363.48	367.09	success
383.62	396.44	stimulus	12	low_cue	high_stim	n/a	n/a	n/a	n/a	n/a	n/a	50c	383.62	387.63	392.63	396.44	success
30.29	3.18	outcomerating	1	high_cue	low_stim	58.44	Strong	58.44	Strong	0.52	2.67	task-pain_scale.png	n/a	n/a	n/a	n/a	success
58.79	2.34	outcomerating	2	high_cue	high_stim	51.56	Strong	51.56	Strong	0.4	1.94	task-pain_scale.png	n/a	n/a	n/a	n/a	success
91.9	2.85	outcomerating	3	high_cue	med_stim	54.78	Strong	54.78	Strong	0.37	2.48	task-pain_scale.png	n/a	n/a	n/a	n/a	success
117.69	3.0	outcomerating	4	low_cue	low_stim	37.43	Strong	37.43	Strong	0.45	2.55	task-pain_scale.png	n/a	n/a	n/a	n/a	success
151.69		outcomerating	5	high_cue	high_stim			55.61	Strong	0.07	3.72	task-pain_scale.png	n/a	n/a	n/a	n/a	success
192.89	1.95	outcomerating	6	high_cue	low_stim	56.44	Strong	56.44	Strong	0.45	1.5	task-pain_scale.png	n/a	n/a	n/a	n/a	success
228.7	2.8	outcomerating	7	low_cue	med_stim	43.68	Strong	43.68	Strong	0.53	2.27	task-pain_scale.png	n/a	n/a	n/a	n/a	success
267.8	2.35	outcomerating	8	low_cue	high_stim	56.44	Strong	56.44	Strong	0.35	2.0	task-pain_scale.png	n/a	n/a	n/a	n/a	success
305.7	2.23	outcomerating	9	low_cue	med_stim	49.32	Strong	49.32	Strong	0.07	2.17	task-pain_scale.png	n/a	n/a	n/a	n/a	success
335.59	3.5	outcomerating	10	low_cue	low_stim	40.75	Strong	40.75	Strong	0.45	3.05	task-pain_scale.png	n/a	n/a	n/a	n/a	success
366.89	2.77	outcomerating	11	high_cue	med_stim	47.76	Strong	47.76	Strong	0.42	2.36	task-pain_scale.png	n/a	n/a	n/a	n/a	success
394.8	2.32	outcomerating	12	low_cue	high_stim	44.51	Strong	44.51	Strong	0.52	1.8	task-pain_scale.png	n/a	n/a	n/a	n/a	success
