onset	duration	trial_type	trial_index	cue	stimulusintensity	rating_value	rating_glmslabel	rating_value_fillna	rating_glmslabel_fillna	rating_mouseonset	rating_mousedur	stim_file	correct_response	participant_response	response_accuracy
5.69	0.98	cue	1	low_cue	n/a	n/a	n/a	n/a	n/a	n/a	n/a	l044.png	n/a	n/a	n/a
34.99	0.99	cue	2	high_cue	n/a	n/a	n/a	n/a	n/a	n/a	n/a	h034.png	n/a	n/a	n/a
62.68	0.99	cue	3	low_cue	n/a	n/a	n/a	n/a	n/a	n/a	n/a	l050.png	n/a	n/a	n/a
96.09	0.98	cue	4	high_cue	n/a	n/a	n/a	n/a	n/a	n/a	n/a	h003.png	n/a	n/a	n/a
131.59	0.98	cue	5	low_cue	n/a	n/a	n/a	n/a	n/a	n/a	n/a	l055.png	n/a	n/a	n/a
163.39	0.99	cue	6	low_cue	n/a	n/a	n/a	n/a	n/a	n/a	n/a	l013.png	n/a	n/a	n/a
193.38	0.99	cue	7	high_cue	n/a	n/a	n/a	n/a	n/a	n/a	n/a	h022.png	n/a	n/a	n/a
234.38	1.0	cue	8	low_cue	n/a	n/a	n/a	n/a	n/a	n/a	n/a	l030.png	n/a	n/a	n/a
259.09	0.99	cue	9	low_cue	n/a	n/a	n/a	n/a	n/a	n/a	n/a	l046.png	n/a	n/a	n/a
307.79	0.98	cue	10	high_cue	n/a	n/a	n/a	n/a	n/a	n/a	n/a	h040.png	n/a	n/a	n/a
340.69	0.99	cue	11	high_cue	n/a	n/a	n/a	n/a	n/a	n/a	n/a	h046.png	n/a	n/a	n/a
371.48	0.99	cue	12	high_cue	n/a	n/a	n/a	n/a	n/a	n/a	n/a	h008.png	n/a	n/a	n/a
8.99	2.53	expectrating	1	low_cue	n/a	28.72	Moderate	28.72	Moderate	0.07	2.47	l044.png	n/a	n/a	n/a
37.69	2.29	expectrating	2	high_cue	n/a	59.43	Strong	59.43	Strong	0.42	1.87	h034.png	n/a	n/a	n/a
65.88	2.88	expectrating	3	low_cue	n/a	6.86	Weak	6.86	Weak	0.4	2.48	l050.png	n/a	n/a	n/a
98.39	1.85	expectrating	4	high_cue	n/a	57.46	Strong	57.46	Strong	0.42	1.43	h003.png	n/a	n/a	n/a
134.29	2.42	expectrating	5	low_cue	n/a	7.42	Weak	7.42	Weak	0.05	2.37	l055.png	n/a	n/a	n/a
165.69	2.69	expectrating	6	low_cue	n/a	9.58	Weak	9.58	Weak	0.05	2.64	l013.png	n/a	n/a	n/a
195.0	1.78	expectrating	7	high_cue	n/a	53.92	Strong	53.92	Strong	0.53	1.25	h022.png	n/a	n/a	n/a
236.0	2.07	expectrating	8	low_cue	n/a	10.22	Moderate	10.22	Moderate	0.45	1.62	l030.png	n/a	n/a	n/a
260.99	1.71	expectrating	9	low_cue	n/a	15.82	Moderate	15.82	Moderate	0.45	1.26	l046.png	n/a	n/a	n/a
310.99	1.87	expectrating	10	high_cue	n/a	36.96	Strong	36.96	Strong	0.4	1.47	h040.png	n/a	n/a	n/a
342.59	1.82	expectrating	11	high_cue	n/a	43.86	Strong	43.86	Strong	0.15	1.67	h046.png	n/a	n/a	n/a
374.8	1.45	expectrating	12	high_cue	n/a	54.13	Strong	54.13	Strong	0.08	1.37	h008.png	n/a	n/a	n/a
19.4	6.99	stimulus	1	low_cue	med_stim	n/a	n/a	n/a	n/a	n/a	n/a	22_100.jpg	same	same	True
44.69	7.0	stimulus	2	high_cue	low_stim	n/a	n/a	n/a	n/a	n/a	n/a	24_50.jpg	same	diff	False
78.39	7.0	stimulus	3	low_cue	high_stim	n/a	n/a	n/a	n/a	n/a	n/a	24_150_R.jpg	diff	diff	True
106.6	6.99	stimulus	4	high_cue	med_stim	n/a	n/a	n/a	n/a	n/a	n/a	9_100_R.jpg	diff	same	False
142.99	7.0	stimulus	5	low_cue	med_stim	n/a	n/a	n/a	n/a	n/a	n/a	23_100_R.jpg	diff	diff	True
180.79	7.0	stimulus	6	low_cue	high_stim	n/a	n/a	n/a	n/a	n/a	n/a	43_150_R.jpg	diff	diff	True
203.18	7.0	stimulus	7	high_cue	high_stim	n/a	n/a	n/a	n/a	n/a	n/a	10_150.jpg	same		False
243.88	7.0	stimulus	8	low_cue	low_stim	n/a	n/a	n/a	n/a	n/a	n/a	17_50.jpg	same	same	True
276.09	6.99	stimulus	9	low_cue	low_stim	n/a	n/a	n/a	n/a	n/a	n/a	34_50.jpg	same	diff	False
318.89	7.0	stimulus	10	high_cue	low_stim	n/a	n/a	n/a	n/a	n/a	n/a	23_50.jpg	same	same	True
355.29	7.0	stimulus	11	high_cue	med_stim	n/a	n/a	n/a	n/a	n/a	n/a	17_100_R.jpg	diff	same	False
387.29	7.0	stimulus	12	high_cue	high_stim	n/a	n/a	n/a	n/a	n/a	n/a	34_150_R.jpg	diff	diff	True
28.09	3.3	outcomerating	1	low_cue	med_stim	22.98	Moderate	22.98	Moderate	0.58	2.72	task-cognitive_scale.png	n/a	n/a	n/a
58.2	2.13	outcomerating	2	high_cue	low_stim	56.18	Strong	56.18	Strong	0.35	1.78	task-cognitive_scale.png	n/a	n/a	n/a
91.59		outcomerating	3	low_cue	high_stim			28.21	Moderate	0.58	2.83	task-cognitive_scale.png	n/a	n/a	n/a
114.8	3.33	outcomerating	4	high_cue	med_stim	50.97	Strong	50.97	Strong	0.05	3.28	task-cognitive_scale.png	n/a	n/a	n/a
156.2		outcomerating	5	low_cue	med_stim			31.13	Strong	0.6	3.07	task-cognitive_scale.png	n/a	n/a	n/a
188.6	2.78	outcomerating	6	low_cue	high_stim	36.04	Strong	36.04	Strong	1.02	1.77	task-cognitive_scale.png	n/a	n/a	n/a
227.89	2.44	outcomerating	7	high_cue	high_stim	47.12	Strong	47.12	Strong	0.53	1.9	task-cognitive_scale.png	n/a	n/a	n/a
252.89	2.93	outcomerating	8	low_cue	low_stim	14.2	Moderate	14.2	Moderate	0.3	2.63	task-cognitive_scale.png	n/a	n/a	n/a
290.98	3.13	outcomerating	9	low_cue	low_stim	19.89	Moderate	19.89	Moderate	0.62	2.52	task-cognitive_scale.png	n/a	n/a	n/a
327.6	2.1	outcomerating	10	high_cue	low_stim	29.29	Strong	29.29	Strong	0.53	1.57	task-cognitive_scale.png	n/a	n/a	n/a
363.79	2.0	outcomerating	11	high_cue	med_stim	34.84	Strong	34.84	Strong	0.68	1.32	task-cognitive_scale.png	n/a	n/a	n/a
395.09	2.84	outcomerating	12	high_cue	high_stim	45.98	Strong	45.98	Strong	0.87	1.97	task-cognitive_scale.png	n/a	n/a	n/a
