onset	duration	trial_type	trial_index	cue	stimulusintensity	rating_value	rating_glmslabel	rating_value_fillna	rating_glmslabel_fillna	rating_mouseonset	rating_mousedur	stim_file
5.69	0.99	cue	1	low_cue	n/a	n/a	n/a	n/a	n/a	n/a	n/a	l004.png
33.4	0.98	cue	2	low_cue	n/a	n/a	n/a	n/a	n/a	n/a	n/a	l029.png
71.1	0.99	cue	3	low_cue	n/a	n/a	n/a	n/a	n/a	n/a	n/a	l043.png
100.69	0.99	cue	4	high_cue	n/a	n/a	n/a	n/a	n/a	n/a	n/a	h017.png
135.81	0.98	cue	5	high_cue	n/a	n/a	n/a	n/a	n/a	n/a	n/a	h040.png
170.6	0.98	cue	6	high_cue	n/a	n/a	n/a	n/a	n/a	n/a	n/a	h018.png
196.9	0.99	cue	7	high_cue	n/a	n/a	n/a	n/a	n/a	n/a	n/a	h024.png
237.0	0.99	cue	8	low_cue	n/a	n/a	n/a	n/a	n/a	n/a	n/a	l002.png
268.29	1.0	cue	9	high_cue	n/a	n/a	n/a	n/a	n/a	n/a	n/a	h046.png
301.9	0.98	cue	10	low_cue	n/a	n/a	n/a	n/a	n/a	n/a	n/a	l008.png
333.9	0.99	cue	11	high_cue	n/a	n/a	n/a	n/a	n/a	n/a	n/a	h056.png
372.5	0.99	cue	12	low_cue	n/a	n/a	n/a	n/a	n/a	n/a	n/a	l032.png
7.71		expectrating	1	low_cue	n/a			15.09	Moderate	0.57	2.1	l004.png
35.7	2.94	expectrating	2	low_cue	n/a	2.07	Barely detectable	2.07	Barely detectable	0.97	1.97	l029.png
73.4	3.11	expectrating	3	low_cue	n/a	5.55	Weak	5.55	Weak	0.78	2.32	l043.png
103.5	3.03	expectrating	4	high_cue	n/a	62.71	Strong	62.71	Strong	1.07	1.97	h017.png
137.51	2.28	expectrating	5	high_cue	n/a	38.48	Strong	38.48	Strong	0.27	2.02	h040.png
172.4	2.14	expectrating	6	high_cue	n/a	34.41	Strong	34.41	Strong	1.0	1.14	h018.png
199.9	1.54	expectrating	7	high_cue	n/a	47.82	Strong	47.82	Strong	0.68	0.86	h024.png
239.7		expectrating	8	low_cue	n/a			5.8	Weak	0.62	3.55	l002.png
271.31	2.53	expectrating	9	high_cue	n/a	63.64	Strong	63.64	Strong	0.4	2.13	h046.png
304.2	2.89	expectrating	10	low_cue	n/a	5.53	Weak	5.53	Weak	0.58	2.3	l008.png
336.9	3.33	expectrating	11	high_cue	n/a	36.5	Strong	36.5	Strong	0.93	2.39	h056.png
375.5	3.1	expectrating	12	low_cue	n/a	9.5	Weak	9.5	Weak	0.93	2.17	l032.png
15.69	7.01	stimulus	1	low_cue	med_stim	n/a	n/a	n/a	n/a	n/a	n/a	ll042t1afunaff_M.mp4
46.49	7.0	stimulus	2	low_cue	low_stim	n/a	n/a	n/a	n/a	n/a	n/a	mg066t2aeunaff_L.mp4
84.19	7.0	stimulus	3	low_cue	high_stim	n/a	n/a	n/a	n/a	n/a	n/a	gf097t2aaunaff_H.mp4
114.79	7.01	stimulus	4	high_cue	low_stim	n/a	n/a	n/a	n/a	n/a	n/a	aa048t2aaunaff_L.mp4
149.79	7.01	stimulus	5	high_cue	med_stim	n/a	n/a	n/a	n/a	n/a	n/a	th108t2aaunaff_M.mp4
180.99	7.0	stimulus	6	high_cue	high_stim	n/a	n/a	n/a	n/a	n/a	n/a	jl047t1aiaff_H.mp4
212.19	7.02	stimulus	7	high_cue	low_stim	n/a	n/a	n/a	n/a	n/a	n/a	ll042t1aaunaff_L.mp4
251.29	7.01	stimulus	8	low_cue	high_stim	n/a	n/a	n/a	n/a	n/a	n/a	aa048t2aeaff_H.mp4
279.19	7.01	stimulus	9	high_cue	high_stim	n/a	n/a	n/a	n/a	n/a	n/a	ll042t1aiaff_H.mp4
316.49	7.01	stimulus	10	low_cue	med_stim	n/a	n/a	n/a	n/a	n/a	n/a	jy115t1aeaff_M.mp4
349.19	7.0	stimulus	11	high_cue	med_stim	n/a	n/a	n/a	n/a	n/a	n/a	gf097t1aiaff_M.mp4
383.39	7.01	stimulus	12	low_cue	low_stim	n/a	n/a	n/a	n/a	n/a	n/a	jy115t1aaunaff_L.mp4
27.92	3.52	outcomerating	1	low_cue	med_stim	8.75	Weak	8.75	Weak	0.43	3.09	task-vicarious_scale.png
55.41	3.33	outcomerating	2	low_cue	low_stim	4.84	Weak	4.84	Weak	0.72	2.62	task-vicarious_scale.png
93.31	2.68	outcomerating	3	low_cue	high_stim	0.0		0.0		0.6	2.08	task-vicarious_scale.png
124.7		outcomerating	4	high_cue	low_stim			20.48	Moderate	0.57	3.35	task-vicarious_scale.png
159.72	2.68	outcomerating	5	high_cue	med_stim	10.63	Moderate	10.63	Moderate	0.62	2.07	task-vicarious_scale.png
190.91	3.99	outcomerating	6	high_cue	high_stim	58.48	Strong	58.48	Strong	1.62	2.37	task-vicarious_scale.png
231.01	3.14	outcomerating	7	high_cue	low_stim	31.71	Strong	31.71	Strong	0.75	2.39	task-vicarious_scale.png
259.3	2.7	outcomerating	8	low_cue	high_stim	11.36	Moderate	11.36	Moderate	0.48	2.22	task-vicarious_scale.png
295.72		outcomerating	9	high_cue	high_stim			53.65	Strong	1.95	2.03	task-vicarious_scale.png
327.71	3.37	outcomerating	10	low_cue	med_stim	9.69	Weak	9.69	Weak	0.87	2.5	task-vicarious_scale.png
361.61	3.07	outcomerating	11	high_cue	med_stim	2.58	Barely detectable	2.58	Barely detectable	0.48	2.58	task-vicarious_scale.png
394.7		outcomerating	12	low_cue	low_stim			14.87	Moderate	1.32	2.47	task-vicarious_scale.png
