onset	duration	trial_type	trial_index	cue	stimulusintensity	rating_value	rating_glmslabel	rating_value_fillna	rating_glmslabel_fillna	rating_mouseonset	rating_mousedur	stim_file	correct_response	participant_response	response_accuracy
5.69	1.0	cue	1	high_cue	n/a	n/a	n/a	n/a	n/a	n/a	n/a	h004.png	n/a	n/a	n/a
32.3	0.98	cue	2	low_cue	n/a	n/a	n/a	n/a	n/a	n/a	n/a	l009.png	n/a	n/a	n/a
63.09	0.99	cue	3	low_cue	n/a	n/a	n/a	n/a	n/a	n/a	n/a	l050.png	n/a	n/a	n/a
95.09	0.99	cue	4	high_cue	n/a	n/a	n/a	n/a	n/a	n/a	n/a	h043.png	n/a	n/a	n/a
120.2	0.98	cue	5	low_cue	n/a	n/a	n/a	n/a	n/a	n/a	n/a	l005.png	n/a	n/a	n/a
159.89	0.99	cue	6	high_cue	n/a	n/a	n/a	n/a	n/a	n/a	n/a	h037.png	n/a	n/a	n/a
219.3	0.98	cue	7	low_cue	n/a	n/a	n/a	n/a	n/a	n/a	n/a	l025.png	n/a	n/a	n/a
252.49	0.99	cue	8	high_cue	n/a	n/a	n/a	n/a	n/a	n/a	n/a	h028.png	n/a	n/a	n/a
283.89	0.99	cue	9	high_cue	n/a	n/a	n/a	n/a	n/a	n/a	n/a	h042.png	n/a	n/a	n/a
311.9	0.98	cue	10	low_cue	n/a	n/a	n/a	n/a	n/a	n/a	n/a	l051.png	n/a	n/a	n/a
341.29	0.99	cue	11	high_cue	n/a	n/a	n/a	n/a	n/a	n/a	n/a	h036.png	n/a	n/a	n/a
371.59	0.99	cue	12	low_cue	n/a	n/a	n/a	n/a	n/a	n/a	n/a	l031.png	n/a	n/a	n/a
8.3	2.0	expectrating	1	high_cue	n/a	20.39	Moderate	20.39	Moderate	0.42	1.58	h004.png	n/a	n/a	n/a
35.3	2.14	expectrating	2	low_cue	n/a	3.27	Weak	3.27	Weak	0.42	1.72	l009.png	n/a	n/a	n/a
65.49	1.88	expectrating	3	low_cue	n/a	3.0	Barely detectable	3.0	Barely detectable	0.43	1.45	l050.png	n/a	n/a	n/a
97.5	3.22	expectrating	4	high_cue	n/a	35.22	Strong	35.22	Strong	0.57	2.65	h043.png	n/a	n/a	n/a
123.2	2.21	expectrating	5	low_cue	n/a	8.69	Weak	8.69	Weak	0.48	1.72	l005.png	n/a	n/a	n/a
162.89	2.91	expectrating	6	high_cue	n/a	45.33	Strong	45.33	Strong	1.25	1.66	h037.png	n/a	n/a	n/a
221.5	3.19	expectrating	7	low_cue	n/a	5.57	Weak	5.57	Weak	0.38	2.8	l025.png	n/a	n/a	n/a
255.1		expectrating	8	high_cue	n/a			43.2	Strong	0.82	2.45	h028.png	n/a	n/a	n/a
285.79	2.23	expectrating	9	high_cue	n/a	32.01	Strong	32.01	Strong	0.48	1.75	h042.png	n/a	n/a	n/a
314.9	1.95	expectrating	10	low_cue	n/a	6.7	Weak	6.7	Weak	0.42	1.53	l051.png	n/a	n/a	n/a
343.2	1.96	expectrating	11	high_cue	n/a	30.61	Strong	30.61	Strong	0.45	1.51	h036.png	n/a	n/a	n/a
373.49		expectrating	12	low_cue	n/a			6.47	Weak	0.82	3.93	l031.png	n/a	n/a	n/a
14.91	6.99	stimulus	1	high_cue	high_stim	n/a	n/a	n/a	n/a	n/a	n/a	29_150.jpg	same	diff	False
47.2	6.99	stimulus	2	low_cue	high_stim	n/a	n/a	n/a	n/a	n/a	n/a	27_150_R.jpg	diff		False
72.09	7.0	stimulus	3	low_cue	high_stim	n/a	n/a	n/a	n/a	n/a	n/a	34_150_R.jpg	diff	diff	True
104.69	7.0	stimulus	4	high_cue	high_stim	n/a	n/a	n/a	n/a	n/a	n/a	43_150_R.jpg	diff	diff	True
140.4	6.99	stimulus	5	low_cue	low_stim	n/a	n/a	n/a	n/a	n/a	n/a	27_50_R.jpg	diff	diff	True
188.99	7.0	stimulus	6	high_cue	low_stim	n/a	n/a	n/a	n/a	n/a	n/a	17_50.jpg	same	same	True
230.49	7.0	stimulus	7	low_cue	med_stim	n/a	n/a	n/a	n/a	n/a	n/a	6_100_R.jpg	diff	diff	True
262.1	7.0	stimulus	8	high_cue	med_stim	n/a	n/a	n/a	n/a	n/a	n/a	4_100_R.jpg	diff	diff	True
293.39	7.0	stimulus	9	high_cue	med_stim	n/a	n/a	n/a	n/a	n/a	n/a	31_100.jpg	same	diff	False
322.49	7.0	stimulus	10	low_cue	med_stim	n/a	n/a	n/a	n/a	n/a	n/a	27_100_R.jpg	diff	diff	True
355.5	6.99	stimulus	11	high_cue	low_stim	n/a	n/a	n/a	n/a	n/a	n/a	27_50.jpg	same	same	True
380.29	7.0	stimulus	12	low_cue	low_stim	n/a	n/a	n/a	n/a	n/a	n/a	8_50.jpg	same	same	True
23.89	1.57	outcomerating	1	high_cue	high_stim	38.95	Strong	38.95	Strong	0.48	1.08	task-cognitive_scale.png	n/a	n/a	n/a
58.49	2.32	outcomerating	2	low_cue	high_stim	34.71	Strong	34.71	Strong	0.38	1.93	task-cognitive_scale.png	n/a	n/a	n/a
81.9	1.4	outcomerating	3	low_cue	high_stim	18.73	Moderate	18.73	Moderate	0.05	1.35	task-cognitive_scale.png	n/a	n/a	n/a
115.59	2.14	outcomerating	4	high_cue	high_stim	7.61	Weak	7.61	Weak	0.3	1.84	task-cognitive_scale.png	n/a	n/a	n/a
149.01	3.23	outcomerating	5	low_cue	low_stim	5.76	Weak	5.76	Weak	0.33	2.9	task-cognitive_scale.png	n/a	n/a	n/a
208.4	3.67	outcomerating	6	high_cue	low_stim	11.08	Moderate	11.08	Moderate	0.48	3.19	task-cognitive_scale.png	n/a	n/a	n/a
241.39	2.15	outcomerating	7	low_cue	med_stim	7.01	Weak	7.01	Weak	0.32	1.83	task-cognitive_scale.png	n/a	n/a	n/a
274.0		outcomerating	8	high_cue	med_stim			46.63	Strong	0.97	2.77	task-cognitive_scale.png	n/a	n/a	n/a
302.8	1.56	outcomerating	9	high_cue	med_stim	45.16	Strong	45.16	Strong	0.2	1.36	task-cognitive_scale.png	n/a	n/a	n/a
334.99		outcomerating	10	low_cue	med_stim			8.13	Weak	0.87	2.67	task-cognitive_scale.png	n/a	n/a	n/a
365.3	2.83	outcomerating	11	high_cue	low_stim	20.18	Moderate	20.18	Moderate	1.0	1.83	task-cognitive_scale.png	n/a	n/a	n/a
395.0	2.27	outcomerating	12	low_cue	low_stim	3.95	Weak	3.95	Weak	0.52	1.75	task-cognitive_scale.png	n/a	n/a	n/a
