onset	duration	trial_type	trial_index	cue	stimulusintensity	rating_value	rating_glmslabel	rating_value_fillna	rating_glmslabel_fillna	rating_mouseonset	rating_mousedur	stim_file	onset_ttl1	onset_ttl2	onset_ttl3	onset_ttl4	stimulus_delivery_success
11.29	1.0	cue	1	high_cue	n/a	n/a	n/a	n/a	n/a	n/a	n/a	h037.png	n/a	n/a	n/a	n/a	n/a
44.29	1.0	cue	2	low_cue	n/a	n/a	n/a	n/a	n/a	n/a	n/a	l044.png	n/a	n/a	n/a	n/a	n/a
80.7	1.0	cue	3	high_cue	n/a	n/a	n/a	n/a	n/a	n/a	n/a	h049.png	n/a	n/a	n/a	n/a	n/a
105.59	1.0	cue	4	low_cue	n/a	n/a	n/a	n/a	n/a	n/a	n/a	l035.png	n/a	n/a	n/a	n/a	n/a
133.79	1.0	cue	5	high_cue	n/a	n/a	n/a	n/a	n/a	n/a	n/a	h009.png	n/a	n/a	n/a	n/a	n/a
169.5	1.0	cue	6	high_cue	n/a	n/a	n/a	n/a	n/a	n/a	n/a	h054.png	n/a	n/a	n/a	n/a	n/a
204.4	1.0	cue	7	low_cue	n/a	n/a	n/a	n/a	n/a	n/a	n/a	l022.png	n/a	n/a	n/a	n/a	n/a
234.29	1.0	cue	8	high_cue	n/a	n/a	n/a	n/a	n/a	n/a	n/a	h016.png	n/a	n/a	n/a	n/a	n/a
266.69	1.0	cue	9	low_cue	n/a	n/a	n/a	n/a	n/a	n/a	n/a	l056.png	n/a	n/a	n/a	n/a	n/a
294.8	1.0	cue	10	high_cue	n/a	n/a	n/a	n/a	n/a	n/a	n/a	h004.png	n/a	n/a	n/a	n/a	n/a
327.09	1.0	cue	11	low_cue	n/a	n/a	n/a	n/a	n/a	n/a	n/a	l047.png	n/a	n/a	n/a	n/a	n/a
366.49	1.0	cue	12	low_cue	n/a	n/a	n/a	n/a	n/a	n/a	n/a	l015.png	n/a	n/a	n/a	n/a	n/a
14.21	1.47	expectrating	1	high_cue	n/a	48.29	Strong	48.29	Strong	0.37	1.1	h037.png	n/a	n/a	n/a	n/a	n/a
47.21	1.43	expectrating	2	low_cue	n/a	6.16	Weak	6.16	Weak	0.55	0.88	l044.png	n/a	n/a	n/a	n/a	n/a
83.7	1.13	expectrating	3	high_cue	n/a	63.77	Strong	63.77	Strong	0.42	0.72	h049.png	n/a	n/a	n/a	n/a	n/a
107.39	0.99	expectrating	4	low_cue	n/a	9.12	Weak	9.12	Weak	0.37	0.62	l035.png	n/a	n/a	n/a	n/a	n/a
135.6	2.3	expectrating	5	high_cue	n/a	18.21	Moderate	18.21	Moderate	0.68	1.62	h009.png	n/a	n/a	n/a	n/a	n/a
172.4	2.0	expectrating	6	high_cue	n/a	54.33	Strong	54.33	Strong	0.7	1.3	h054.png	n/a	n/a	n/a	n/a	n/a
207.3	1.45	expectrating	7	low_cue	n/a	15.66	Moderate	15.66	Moderate	0.5	0.95	l022.png	n/a	n/a	n/a	n/a	n/a
236.19	2.19	expectrating	8	high_cue	n/a	35.73	Strong	35.73	Strong	1.25	0.94	h016.png	n/a	n/a	n/a	n/a	n/a
268.5	0.97	expectrating	9	low_cue	n/a	0.0		0.0		0.18	0.78	l056.png	n/a	n/a	n/a	n/a	n/a
297.3	1.52	expectrating	10	high_cue	n/a	49.12	Strong	49.12	Strong	0.05	1.47	h004.png	n/a	n/a	n/a	n/a	n/a
329.99	1.22	expectrating	11	low_cue	n/a	1.16	Barely detectable	1.16	Barely detectable	0.05	1.17	l047.png	n/a	n/a	n/a	n/a	n/a
369.39	2.57	expectrating	12	low_cue	n/a	9.5	Weak	9.5	Weak	0.08	2.49	l015.png	n/a	n/a	n/a	n/a	n/a
19.33	11.92	stimulus	1	high_cue	high_stim	n/a	n/a	n/a	n/a	n/a	n/a	50c	19.36	23.12	28.12	31.29	success
59.42	11.88	stimulus	2	low_cue	high_stim	n/a	n/a	n/a	n/a	n/a	n/a	50c	59.46	63.15	68.15	71.33	success
90.02	11.86	stimulus	3	high_cue	high_stim	n/a	n/a	n/a	n/a	n/a	n/a	50c	90.06	93.7	98.7	101.93	success
112.52	11.44	stimulus	4	low_cue	med_stim	n/a	n/a	n/a	n/a	n/a	n/a	49c	112.55	115.94	120.94	123.99	success
145.94	11.1	stimulus	5	high_cue	low_stim	n/a	n/a	n/a	n/a	n/a	n/a	48c	145.97	149.17	154.17	157.07	success
184.92	11.5	stimulus	6	high_cue	med_stim	n/a	n/a	n/a	n/a	n/a	n/a	49c	184.95	188.41	193.41	196.46	success
216.44	11.88	stimulus	7	low_cue	high_stim	n/a	n/a	n/a	n/a	n/a	n/a	50c	216.47	220.14	225.14	228.36	success
242.95	11.13	stimulus	8	high_cue	low_stim	n/a	n/a	n/a	n/a	n/a	n/a	48c	242.97	246.19	251.19	254.11	success
278.82	11.2	stimulus	9	low_cue	low_stim	n/a	n/a	n/a	n/a	n/a	n/a	48c	278.86	282.1	287.1	290.06	success
305.93	11.52	stimulus	10	high_cue	med_stim	n/a	n/a	n/a	n/a	n/a	n/a	49c	305.97	309.4	314.4	317.49	success
340.93	11.56	stimulus	11	low_cue	med_stim	n/a	n/a	n/a	n/a	n/a	n/a	49c	340.97	344.42	349.42	352.53	success
374.23	11.21	stimulus	12	low_cue	low_stim	n/a	n/a	n/a	n/a	n/a	n/a	48c	374.26	377.53	382.53	385.47	success
32.7	2.67	outcomerating	1	high_cue	high_stim	61.28	Strong	61.28	Strong	0.6	2.07	task-pain_scale.png	n/a	n/a	n/a	n/a	success
70.7		outcomerating	2	low_cue	high_stim			66.77	Very Strong	0.53	3.45	task-pain_scale.png	n/a	n/a	n/a	n/a	success
100.59	1.69	outcomerating	3	high_cue	high_stim	27.6	Moderate	27.6	Moderate	0.75	0.94	task-pain_scale.png	n/a	n/a	n/a	n/a	success
126.1	2.57	outcomerating	4	low_cue	med_stim	26.15	Moderate	26.15	Moderate	0.6	1.97	task-pain_scale.png	n/a	n/a	n/a	n/a	success
159.5	1.98	outcomerating	5	high_cue	low_stim	21.63	Moderate	21.63	Moderate	0.77	1.22	task-pain_scale.png	n/a	n/a	n/a	n/a	success
196.69	2.92	outcomerating	6	high_cue	med_stim	29.97	Strong	29.97	Strong	0.97	1.95	task-pain_scale.png	n/a	n/a	n/a	n/a	success
228.41	1.74	outcomerating	7	low_cue	high_stim	97.21	Very Strong	97.21	Very Strong	0.62	1.12	task-pain_scale.png	n/a	n/a	n/a	n/a	success
255.7	1.5	outcomerating	8	high_cue	low_stim	8.84	Weak	8.84	Weak	0.52	0.98	task-pain_scale.png	n/a	n/a	n/a	n/a	success
289.0	2.12	outcomerating	9	low_cue	low_stim	10.22	Moderate	10.22	Moderate	0.5	1.62	task-pain_scale.png	n/a	n/a	n/a	n/a	success
317.21	2.03	outcomerating	10	high_cue	med_stim	23.99	Moderate	23.99	Moderate	0.48	1.55	task-pain_scale.png	n/a	n/a	n/a	n/a	success
361.51	2.35	outcomerating	11	low_cue	med_stim	7.7	Weak	7.7	Weak	0.6	1.75	task-pain_scale.png	n/a	n/a	n/a	n/a	success
394.8	2.02	outcomerating	12	low_cue	low_stim	9.17	Weak	9.17	Weak	0.6	1.42	task-pain_scale.png	n/a	n/a	n/a	n/a	success
