onset	duration	trial_type	trial_index	cue	stimulusintensity	rating_value	rating_glmslabel	rating_value_fillna	rating_glmslabel_fillna	rating_mouseonset	rating_mousedur	stim_file
5.68	0.99	cue	1	high_cue	n/a	n/a	n/a	n/a	n/a	n/a	n/a	h009.png
28.99	0.98	cue	2	low_cue	n/a	n/a	n/a	n/a	n/a	n/a	n/a	l054.png
59.78	0.99	cue	3	low_cue	n/a	n/a	n/a	n/a	n/a	n/a	n/a	l017.png
94.88	0.99	cue	4	high_cue	n/a	n/a	n/a	n/a	n/a	n/a	n/a	h056.png
119.99	0.98	cue	5	low_cue	n/a	n/a	n/a	n/a	n/a	n/a	n/a	l014.png
162.39	0.98	cue	6	high_cue	n/a	n/a	n/a	n/a	n/a	n/a	n/a	h049.png
215.39	0.98	cue	7	low_cue	n/a	n/a	n/a	n/a	n/a	n/a	n/a	l021.png
251.69	0.98	cue	8	high_cue	n/a	n/a	n/a	n/a	n/a	n/a	n/a	h054.png
279.98	0.99	cue	9	high_cue	n/a	n/a	n/a	n/a	n/a	n/a	n/a	h043.png
308.39	0.98	cue	10	low_cue	n/a	n/a	n/a	n/a	n/a	n/a	n/a	l044.png
341.09	0.98	cue	11	high_cue	n/a	n/a	n/a	n/a	n/a	n/a	n/a	h015.png
374.28	0.99	cue	12	low_cue	n/a	n/a	n/a	n/a	n/a	n/a	n/a	l031.png
8.3	2.25	expectrating	1	high_cue	n/a	38.8	Strong	38.8	Strong	0.75	1.5	h009.png
31.99	1.35	expectrating	2	low_cue	n/a	5.09	Weak	5.09	Weak	0.68	0.67	l054.png
62.18	1.15	expectrating	3	low_cue	n/a	1.15	Barely detectable	1.15	Barely detectable	0.38	0.77	l017.png
97.28	2.07	expectrating	4	high_cue	n/a	1.84	Barely detectable	1.84	Barely detectable	0.05	2.02	h056.png
122.99	1.99	expectrating	5	low_cue	n/a	0.0		0.0		0.82	1.17	l014.png
165.39	2.84	expectrating	6	high_cue	n/a	33.31	Strong	33.31	Strong	0.7	2.14	h049.png
217.59	0.98	expectrating	7	low_cue	n/a	2.08	Barely detectable	2.08	Barely detectable	0.35	0.63	l021.png
254.29	1.39	expectrating	8	high_cue	n/a	49.93	Strong	49.93	Strong	0.37	1.02	h054.png
281.88	2.5	expectrating	9	high_cue	n/a	68.24	Very Strong	68.24	Very Strong	0.42	2.08	h043.png
311.39	1.12	expectrating	10	low_cue	n/a	5.47	Weak	5.47	Weak	0.48	0.63	l044.png
342.99	2.84	expectrating	11	high_cue	n/a	40.13	Strong	40.13	Strong	0.85	1.99	h015.png
376.18	2.03	expectrating	12	low_cue	n/a	2.54	Barely detectable	2.54	Barely detectable	0.63	1.39	l031.png
14.88	7.01	stimulus	1	high_cue	high_stim	n/a	n/a	n/a	n/a	n/a	n/a	ll042t1aiaff_H.mp4
43.88	7.0	stimulus	2	low_cue	high_stim	n/a	n/a	n/a	n/a	n/a	n/a	jk103t1aaaff_H.mp4
69.18	7.01	stimulus	3	low_cue	high_stim	n/a	n/a	n/a	n/a	n/a	n/a	jh123t1aeaff_H.mp4
104.48	7.01	stimulus	4	high_cue	high_stim	n/a	n/a	n/a	n/a	n/a	n/a	jl047t1aiaff_H.mp4
140.18	7.0	stimulus	5	low_cue	low_stim	n/a	n/a	n/a	n/a	n/a	n/a	nm106t1aaunaff_L.mp4
191.07	7.01	stimulus	6	high_cue	low_stim	n/a	n/a	n/a	n/a	n/a	n/a	jh123t1aaunaff_L.mp4
226.97	7.01	stimulus	7	low_cue	med_stim	n/a	n/a	n/a	n/a	n/a	n/a	nm106t2aaunaff_M.mp4
260.87	7.0	stimulus	8	high_cue	med_stim	n/a	n/a	n/a	n/a	n/a	n/a	jh123t2aaaff_M.mp4
289.87	7.01	stimulus	9	high_cue	med_stim	n/a	n/a	n/a	n/a	n/a	n/a	jl047t1aiunaff_M.mp4
318.97	7.01	stimulus	10	low_cue	med_stim	n/a	n/a	n/a	n/a	n/a	n/a	jk103t2aaunaff_M.mp4
354.87	7.0	stimulus	11	high_cue	low_stim	n/a	n/a	n/a	n/a	n/a	n/a	jk103t1aaunaff_L.mp4
382.97	7.01	stimulus	12	low_cue	low_stim	n/a	n/a	n/a	n/a	n/a	n/a	bg096t2afunaff_L.mp4
23.89	2.74	outcomerating	1	high_cue	high_stim	34.39	Strong	34.39	Strong	0.4	2.34	task-vicarious_scale.png
55.2	2.63	outcomerating	2	low_cue	high_stim	9.46	Weak	9.46	Weak	0.48	2.15	task-vicarious_scale.png
81.69	2.0	outcomerating	3	low_cue	high_stim	4.82	Weak	4.82	Weak	0.53	1.47	task-vicarious_scale.png
115.39	1.71	outcomerating	4	high_cue	high_stim	15.28	Moderate	15.28	Moderate	0.47	1.24	task-vicarious_scale.png
151.5	1.89	outcomerating	5	low_cue	low_stim	5.3	Weak	5.3	Weak	0.55	1.34	task-vicarious_scale.png
207.79	2.07	outcomerating	6	high_cue	low_stim	1.15	Barely detectable	1.15	Barely detectable	1.0	1.07	task-vicarious_scale.png
240.6	1.67	outcomerating	7	low_cue	med_stim	2.09	Barely detectable	2.09	Barely detectable	0.77	0.9	task-vicarious_scale.png
270.09	1.37	outcomerating	8	high_cue	med_stim	2.3	Barely detectable	2.3	Barely detectable	0.42	0.95	task-vicarious_scale.png
299.29	3.0	outcomerating	9	high_cue	med_stim	1.86	Barely detectable	1.86	Barely detectable	0.67	2.34	task-vicarious_scale.png
331.5	2.07	outcomerating	10	low_cue	med_stim	15.6	Moderate	15.6	Moderate	0.53	1.53	task-vicarious_scale.png
364.7	1.88	outcomerating	11	high_cue	low_stim	12.5	Moderate	12.5	Moderate	0.53	1.35	task-vicarious_scale.png
394.99	2.08	outcomerating	12	low_cue	low_stim	22.23	Moderate	22.23	Moderate	0.45	1.63	task-vicarious_scale.png
