onset	duration	trial_type	trial_index	cue	stimulusintensity	rating_value	rating_glmslabel	rating_value_fillna	rating_glmslabel_fillna	rating_mouseonset	rating_mousedur	stim_file	onset_ttl1	onset_ttl2	onset_ttl3	onset_ttl4	stimulus_delivery_success
8.1	1.0	cue	1	high_cue	n/a	n/a	n/a	n/a	n/a	n/a	n/a	h044.png	n/a	n/a	n/a	n/a	n/a
52.4	1.0	cue	2	low_cue	n/a	n/a	n/a	n/a	n/a	n/a	n/a	l015.png	n/a	n/a	n/a	n/a	n/a
93.2	1.0	cue	3	high_cue	n/a	n/a	n/a	n/a	n/a	n/a	n/a	h032.png	n/a	n/a	n/a	n/a	n/a
123.4	1.0	cue	4	low_cue	n/a	n/a	n/a	n/a	n/a	n/a	n/a	l021.png	n/a	n/a	n/a	n/a	n/a
151.31	0.98	cue	5	high_cue	n/a	n/a	n/a	n/a	n/a	n/a	n/a	h010.png	n/a	n/a	n/a	n/a	n/a
188.4	1.0	cue	6	high_cue	n/a	n/a	n/a	n/a	n/a	n/a	n/a	h004.png	n/a	n/a	n/a	n/a	n/a
218.2	1.0	cue	7	low_cue	n/a	n/a	n/a	n/a	n/a	n/a	n/a	l044.png	n/a	n/a	n/a	n/a	n/a
246.19	1.0	cue	8	high_cue	n/a	n/a	n/a	n/a	n/a	n/a	n/a	h049.png	n/a	n/a	n/a	n/a	n/a
277.6	1.0	cue	9	low_cue	n/a	n/a	n/a	n/a	n/a	n/a	n/a	l056.png	n/a	n/a	n/a	n/a	n/a
309.7	1.0	cue	10	low_cue	n/a	n/a	n/a	n/a	n/a	n/a	n/a	l001.png	n/a	n/a	n/a	n/a	n/a
339.19	1.0	cue	11	high_cue	n/a	n/a	n/a	n/a	n/a	n/a	n/a	h022.png	n/a	n/a	n/a	n/a	n/a
371.69	1.0	cue	12	low_cue	n/a	n/a	n/a	n/a	n/a	n/a	n/a	l033.png	n/a	n/a	n/a	n/a	n/a
10.0	1.95	expectrating	1	high_cue	n/a	53.96	Strong	53.96	Strong	0.48	1.47	h044.png	n/a	n/a	n/a	n/a	n/a
55.0	2.07	expectrating	2	low_cue	n/a	9.31	Weak	9.31	Weak	0.57	1.5	l015.png	n/a	n/a	n/a	n/a	n/a
96.1	2.22	expectrating	3	high_cue	n/a	52.39	Strong	52.39	Strong	0.83	1.38	h032.png	n/a	n/a	n/a	n/a	n/a
126.7	2.94	expectrating	4	low_cue	n/a	25.67	Moderate	25.67	Moderate	1.23	1.7	l021.png	n/a	n/a	n/a	n/a	n/a
153.11	3.02	expectrating	5	high_cue	n/a	20.85	Moderate	20.85	Moderate	0.97	2.05	h010.png	n/a	n/a	n/a	n/a	n/a
190.5	2.53	expectrating	6	high_cue	n/a	28.22	Moderate	28.22	Moderate	1.45	1.08	h004.png	n/a	n/a	n/a	n/a	n/a
220.3	2.75	expectrating	7	low_cue	n/a	2.53	Barely detectable	2.53	Barely detectable	2.1	0.65	l044.png	n/a	n/a	n/a	n/a	n/a
248.69	2.36	expectrating	8	high_cue	n/a	45.99	Strong	45.99	Strong	0.8	1.56	h049.png	n/a	n/a	n/a	n/a	n/a
280.7	1.47	expectrating	9	low_cue	n/a	0.0		0.0		0.65	0.82	l056.png	n/a	n/a	n/a	n/a	n/a
312.0	1.95	expectrating	10	low_cue	n/a	4.15	Weak	4.15	Weak	0.43	1.52	l001.png	n/a	n/a	n/a	n/a	n/a
342.29	3.24	expectrating	11	high_cue	n/a	63.33	Strong	63.33	Strong	0.57	2.67	h022.png	n/a	n/a	n/a	n/a	n/a
374.01	1.42	expectrating	12	low_cue	n/a	0.0		0.0		0.6	0.82	l033.png	n/a	n/a	n/a	n/a	n/a
21.35	11.19	stimulus	1	high_cue	low_stim	n/a	n/a	n/a	n/a	n/a	n/a	48c	20.92	24.2	29.2	32.11	success
67.04	11.57	stimulus	2	low_cue	med_stim	n/a	n/a	n/a	n/a	n/a	n/a	49c	66.62	70.07	75.07	78.19	success
103.63	12.01	stimulus	3	high_cue	high_stim	n/a	n/a	n/a	n/a	n/a	n/a	50c	103.21	106.93	111.93	115.22	success
132.73	11.95	stimulus	4	low_cue	high_stim	n/a	n/a	n/a	n/a	n/a	n/a	50c	132.31	135.96	140.96	144.26	success
165.13	11.22	stimulus	5	high_cue	low_stim	n/a	n/a	n/a	n/a	n/a	n/a	48c	164.7	167.97	172.97	175.92	success
196.52	11.62	stimulus	6	high_cue	med_stim	n/a	n/a	n/a	n/a	n/a	n/a	49c	196.1	199.56	204.56	207.72	success
228.23	12.04	stimulus	7	low_cue	high_stim	n/a	n/a	n/a	n/a	n/a	n/a	50c	227.82	231.52	236.52	239.86	success
255.72	11.58	stimulus	8	high_cue	med_stim	n/a	n/a	n/a	n/a	n/a	n/a	49c	255.3	258.74	263.74	266.88	success
290.53	11.2	stimulus	9	low_cue	low_stim	n/a	n/a	n/a	n/a	n/a	n/a	48c	290.1	293.33	298.33	301.31	success
318.01	11.18	stimulus	10	low_cue	low_stim	n/a	n/a	n/a	n/a	n/a	n/a	48c	317.6	320.8	325.8	328.78	success
352.62	12.03	stimulus	11	high_cue	high_stim	n/a	n/a	n/a	n/a	n/a	n/a	50c	352.21	355.91	360.91	364.24	success
380.04	11.6	stimulus	12	low_cue	med_stim	n/a	n/a	n/a	n/a	n/a	n/a	49c	379.62	383.08	388.08	391.23	success
39.6	2.17	outcomerating	1	high_cue	low_stim	41.75	Strong	41.75	Strong	0.43	1.74	task-pain_scale.png	n/a	n/a	n/a	n/a	success
83.9	1.52	outcomerating	2	low_cue	med_stim	28.78	Moderate	28.78	Moderate	0.67	0.85	task-pain_scale.png	n/a	n/a	n/a	n/a	success
116.39	2.11	outcomerating	3	high_cue	high_stim	89.31	Very Strong	89.31	Very Strong	0.57	1.54	task-pain_scale.png	n/a	n/a	n/a	n/a	success
143.0	2.45	outcomerating	4	low_cue	high_stim	63.75	Strong	63.75	Strong	0.77	1.68	task-pain_scale.png	n/a	n/a	n/a	n/a	success
177.72	1.72	outcomerating	5	high_cue	low_stim	9.73	Weak	9.73	Weak	0.63	1.09	task-pain_scale.png	n/a	n/a	n/a	n/a	success
207.49	1.84	outcomerating	6	high_cue	med_stim	27.7	Moderate	27.7	Moderate	0.77	1.07	task-pain_scale.png	n/a	n/a	n/a	n/a	success
239.21	2.4	outcomerating	7	low_cue	high_stim	60.29	Strong	60.29	Strong	0.47	1.93	task-pain_scale.png	n/a	n/a	n/a	n/a	success
268.3	3.4	outcomerating	8	high_cue	med_stim	31.36	Strong	31.36	Strong	0.78	2.62	task-pain_scale.png	n/a	n/a	n/a	n/a	success
305.2	2.9	outcomerating	9	low_cue	low_stim	4.43	Weak	4.43	Weak	0.62	2.29	task-pain_scale.png	n/a	n/a	n/a	n/a	success
330.81	2.52	outcomerating	10	low_cue	low_stim	3.92	Weak	3.92	Weak	0.48	2.03	task-pain_scale.png	n/a	n/a	n/a	n/a	success
366.9	2.38	outcomerating	11	high_cue	high_stim	69.39	Very Strong	69.39	Very Strong	0.53	1.85	task-pain_scale.png	n/a	n/a	n/a	n/a	success
394.8	1.99	outcomerating	12	low_cue	med_stim	29.23	Strong	29.23	Strong	0.6	1.39	task-pain_scale.png	n/a	n/a	n/a	n/a	success
