onset	duration	trial_type	trial_index	cue	stimulusintensity	rating_value	rating_glmslabel	rating_value_fillna	rating_glmslabel_fillna	rating_mouseonset	rating_mousedur	stim_file	onset_ttl1	onset_ttl2	onset_ttl3	onset_ttl4	stimulus_delivery_success
4.79	0.98	cue	1	high_cue	n/a	n/a	n/a	n/a	n/a	n/a	n/a	h054.png	n/a	n/a	n/a	n/a	n/a
33.09	1.0	cue	2	low_cue	n/a	n/a	n/a	n/a	n/a	n/a	n/a	l028.png	n/a	n/a	n/a	n/a	n/a
61.08	1.0	cue	3	low_cue	n/a	n/a	n/a	n/a	n/a	n/a	n/a	l002.png	n/a	n/a	n/a	n/a	n/a
86.49	0.98	cue	4	low_cue	n/a	n/a	n/a	n/a	n/a	n/a	n/a	l042.png	n/a	n/a	n/a	n/a	n/a
114.78	1.0	cue	5	high_cue	n/a	n/a	n/a	n/a	n/a	n/a	n/a	h024.png	n/a	n/a	n/a	n/a	n/a
138.48	1.0	cue	6	high_cue	n/a	n/a	n/a	n/a	n/a	n/a	n/a	h050.png	n/a	n/a	n/a	n/a	n/a
163.48	1.0	cue	7	high_cue	n/a	n/a	n/a	n/a	n/a	n/a	n/a	h025.png	n/a	n/a	n/a	n/a	n/a
209.38	1.0	cue	8	high_cue	n/a	n/a	n/a	n/a	n/a	n/a	n/a	h023.png	n/a	n/a	n/a	n/a	n/a
234.58	1.0	cue	9	low_cue	n/a	n/a	n/a	n/a	n/a	n/a	n/a	l014.png	n/a	n/a	n/a	n/a	n/a
270.97	1.0	cue	10	low_cue	n/a	n/a	n/a	n/a	n/a	n/a	n/a	l018.png	n/a	n/a	n/a	n/a	n/a
317.58	1.0	cue	11	low_cue	n/a	n/a	n/a	n/a	n/a	n/a	n/a	l001.png	n/a	n/a	n/a	n/a	n/a
358.09	0.98	cue	12	high_cue	n/a	n/a	n/a	n/a	n/a	n/a	n/a	h010.png	n/a	n/a	n/a	n/a	n/a
7.19	3.17	expectrating	1	high_cue	n/a	27.8	Moderate	27.8	Moderate	0.72	2.45	h054.png	n/a	n/a	n/a	n/a	n/a
34.89	1.41	expectrating	2	low_cue	n/a	3.71	Weak	3.71	Weak	0.52	0.89	l028.png	n/a	n/a	n/a	n/a	n/a
63.18	1.95	expectrating	3	low_cue	n/a	1.15	Barely detectable	1.15	Barely detectable	0.9	1.05	l002.png	n/a	n/a	n/a	n/a	n/a
89.59	1.7	expectrating	4	low_cue	n/a	5.41	Weak	5.41	Weak	0.45	1.25	l042.png	n/a	n/a	n/a	n/a	n/a
117.18	1.33	expectrating	5	high_cue	n/a	81.53	Very Strong	81.53	Very Strong	0.48	0.84	h024.png	n/a	n/a	n/a	n/a	n/a
140.59	1.57	expectrating	6	high_cue	n/a	36.04	Strong	36.04	Strong	0.3	1.27	h050.png	n/a	n/a	n/a	n/a	n/a
165.59	1.21	expectrating	7	high_cue	n/a	57.14	Strong	57.14	Strong	0.32	0.89	h025.png	n/a	n/a	n/a	n/a	n/a
211.49	2.09	expectrating	8	high_cue	n/a	60.11	Strong	60.11	Strong	0.5	1.59	h023.png	n/a	n/a	n/a	n/a	n/a
237.68	1.43	expectrating	9	low_cue	n/a	0.92	No sensation	0.92	No sensation	0.38	1.05	l014.png	n/a	n/a	n/a	n/a	n/a
274.09	1.75	expectrating	10	low_cue	n/a	6.55	Weak	6.55	Weak	0.55	1.2	l018.png	n/a	n/a	n/a	n/a	n/a
319.99	1.55	expectrating	11	low_cue	n/a	6.11	Weak	6.11	Weak	0.7	0.85	l001.png	n/a	n/a	n/a	n/a	n/a
361.19	2.18	expectrating	12	high_cue	n/a	69.96	Very Strong	69.96	Very Strong	0.43	1.75	h010.png	n/a	n/a	n/a	n/a	n/a
15.81	11.14	stimulus	1	high_cue	low_stim	n/a	n/a	n/a	n/a	n/a	n/a	48c	15.85	19.22	24.22	26.99	success
44.2	11.14	stimulus	2	low_cue	low_stim	n/a	n/a	n/a	n/a	n/a	n/a	48c	44.24	47.57	52.57	55.38	success
69.81	11.56	stimulus	3	low_cue	med_stim	n/a	n/a	n/a	n/a	n/a	n/a	49c	69.85	73.44	78.44	81.41	success
98.82	11.97	stimulus	4	low_cue	high_stim	n/a	n/a	n/a	n/a	n/a	n/a	50c	98.86	102.67	107.67	110.83	success
122.6	11.55	stimulus	5	high_cue	med_stim	n/a	n/a	n/a	n/a	n/a	n/a	49c	122.64	126.16	131.16	134.2	success
145.92	11.93	stimulus	6	high_cue	high_stim	n/a	n/a	n/a	n/a	n/a	n/a	50c	145.96	149.7	154.7	157.89	success
176.4	11.17	stimulus	7	high_cue	low_stim	n/a	n/a	n/a	n/a	n/a	n/a	48c	176.45	179.76	184.76	187.61	success
216.41	11.94	stimulus	8	high_cue	high_stim	n/a	n/a	n/a	n/a	n/a	n/a	50c	216.45	220.22	225.22	228.39	success
250.5	11.16	stimulus	9	low_cue	low_stim	n/a	n/a	n/a	n/a	n/a	n/a	48c	250.54	253.85	258.85	261.7	success
283.4	11.59	stimulus	10	low_cue	med_stim	n/a	n/a	n/a	n/a	n/a	n/a	49c	283.44	287.0	292.0	295.03	success
325.41	12.0	stimulus	11	low_cue	high_stim	n/a	n/a	n/a	n/a	n/a	n/a	50c	325.44	329.28	334.28	337.44	success
375.51	11.62	stimulus	12	high_cue	med_stim	n/a	n/a	n/a	n/a	n/a	n/a	49c	375.54	379.15	384.15	387.16	success
27.18		outcomerating	1	high_cue	low_stim			74.68	Very Strong	0.47	2.85	task-pain_scale.png	n/a	n/a	n/a	n/a	success
56.08	2.77	outcomerating	2	low_cue	low_stim	15.15	Moderate	15.15	Moderate	0.42	2.35	task-pain_scale.png	n/a	n/a	n/a	n/a	success
81.39	1.94	outcomerating	3	low_cue	med_stim	45.0	Strong	45.0	Strong	0.5	1.44	task-pain_scale.png	n/a	n/a	n/a	n/a	success
110.08	1.78	outcomerating	4	low_cue	high_stim	65.94	Very Strong	65.94	Very Strong	0.42	1.36	task-pain_scale.png	n/a	n/a	n/a	n/a	success
133.89	2.59	outcomerating	5	high_cue	med_stim	29.83	Strong	29.83	Strong	0.47	2.12	task-pain_scale.png	n/a	n/a	n/a	n/a	success
157.58	1.51	outcomerating	6	high_cue	high_stim	70.33	Very Strong	70.33	Very Strong	0.25	1.26	task-pain_scale.png	n/a	n/a	n/a	n/a	success
197.58	1.68	outcomerating	7	high_cue	low_stim	30.37	Strong	30.37	Strong	0.57	1.12	task-pain_scale.png	n/a	n/a	n/a	n/a	success
229.69	1.85	outcomerating	8	high_cue	high_stim	68.95	Very Strong	68.95	Very Strong	0.62	1.23	task-pain_scale.png	n/a	n/a	n/a	n/a	success
265.09	1.52	outcomerating	9	low_cue	low_stim	21.93	Moderate	21.93	Moderate	0.55	0.97	task-pain_scale.png	n/a	n/a	n/a	n/a	success
296.58	2.53	outcomerating	10	low_cue	med_stim	26.67	Moderate	26.67	Moderate	0.47	2.06	task-pain_scale.png	n/a	n/a	n/a	n/a	success
337.08	3.03	outcomerating	11	low_cue	high_stim	77.02	Very Strong	77.02	Very Strong	0.23	2.79	task-pain_scale.png	n/a	n/a	n/a	n/a	success
394.09	1.74	outcomerating	12	high_cue	med_stim	17.33	Moderate	17.33	Moderate	0.57	1.17	task-pain_scale.png	n/a	n/a	n/a	n/a	success
