onset	duration	trial_type	trial_index	cue	stimulusintensity	rating_value	rating_glmslabel	rating_value_fillna	rating_glmslabel_fillna	rating_mouseonset	rating_mousedur	stim_file
5.69	0.99	cue	1	high_cue	n/a	n/a	n/a	n/a	n/a	n/a	n/a	h003.png
32.3	0.98	cue	2	low_cue	n/a	n/a	n/a	n/a	n/a	n/a	n/a	l035.png
63.09	0.99	cue	3	low_cue	n/a	n/a	n/a	n/a	n/a	n/a	n/a	l025.png
95.09	0.99	cue	4	high_cue	n/a	n/a	n/a	n/a	n/a	n/a	n/a	h023.png
120.2	0.98	cue	5	low_cue	n/a	n/a	n/a	n/a	n/a	n/a	n/a	l018.png
159.89	0.99	cue	6	high_cue	n/a	n/a	n/a	n/a	n/a	n/a	n/a	h021.png
219.3	0.98	cue	7	low_cue	n/a	n/a	n/a	n/a	n/a	n/a	n/a	l012.png
252.49	0.99	cue	8	high_cue	n/a	n/a	n/a	n/a	n/a	n/a	n/a	h055.png
283.89	0.99	cue	9	high_cue	n/a	n/a	n/a	n/a	n/a	n/a	n/a	h042.png
311.88	1.0	cue	10	low_cue	n/a	n/a	n/a	n/a	n/a	n/a	n/a	l015.png
341.29	0.99	cue	11	high_cue	n/a	n/a	n/a	n/a	n/a	n/a	n/a	h054.png
371.59	0.99	cue	12	low_cue	n/a	n/a	n/a	n/a	n/a	n/a	n/a	l002.png
8.3	2.92	expectrating	1	high_cue	n/a	35.48	Strong	35.48	Strong	0.33	2.58	h003.png
35.3		expectrating	2	low_cue	n/a			12.26	Moderate	1.3	3.5	l035.png
65.49	2.47	expectrating	3	low_cue	n/a	17.27	Moderate	17.27	Moderate	0.97	1.51	l025.png
97.5	2.42	expectrating	4	high_cue	n/a	53.13	Strong	53.13	Strong	1.42	1.0	h023.png
123.2	3.07	expectrating	5	low_cue	n/a	16.32	Moderate	16.32	Moderate	1.27	1.8	l018.png
162.9	3.27	expectrating	6	high_cue	n/a	71.93	Very Strong	71.93	Very Strong	1.2	2.07	h021.png
221.5	1.83	expectrating	7	low_cue	n/a	7.73	Weak	7.73	Weak	0.05	1.78	l012.png
255.1	2.82	expectrating	8	high_cue	n/a	68.64	Very Strong	68.64	Very Strong	0.98	1.84	h055.png
285.79	3.26	expectrating	9	high_cue	n/a	58.68	Strong	58.68	Strong	1.23	2.02	h042.png
314.9		expectrating	10	low_cue	n/a							l015.png
343.19	2.24	expectrating	11	high_cue	n/a	53.96	Strong	53.96	Strong	1.37	0.87	h054.png
373.49	2.74	expectrating	12	low_cue	n/a	9.69	Weak	9.69	Weak	1.18	1.56	l002.png
14.88	7.01	stimulus	1	high_cue	high_stim	n/a	n/a	n/a	n/a	n/a	n/a	ch092t2aiaff_H.mp4
47.18	7.01	stimulus	2	low_cue	high_stim	n/a	n/a	n/a	n/a	n/a	n/a	mg101t2aeaff_H.mp4
72.08	7.02	stimulus	3	low_cue	high_stim	n/a	n/a	n/a	n/a	n/a	n/a	ak064t1aaaff_H.mp4
104.68	7.01	stimulus	4	high_cue	high_stim	n/a	n/a	n/a	n/a	n/a	n/a	tv095t1afaff_H.mp4
140.38	7.01	stimulus	5	low_cue	low_stim	n/a	n/a	n/a	n/a	n/a	n/a	ak064t1afunaff_L.mp4
188.98	7.01	stimulus	6	high_cue	low_stim	n/a	n/a	n/a	n/a	n/a	n/a	bm049t1afaff_L.mp4
230.48	7.01	stimulus	7	low_cue	med_stim	n/a	n/a	n/a	n/a	n/a	n/a	tv095t2afaff_M.mp4
262.08	7.0	stimulus	8	high_cue	med_stim	n/a	n/a	n/a	n/a	n/a	n/a	dn124t1aeunaff_M.mp4
293.38	7.01	stimulus	9	high_cue	med_stim	n/a	n/a	n/a	n/a	n/a	n/a	bm049t2aeaff_M.mp4
322.48	7.01	stimulus	10	low_cue	med_stim	n/a	n/a	n/a	n/a	n/a	n/a	mg101t2aeunaff_M.mp4
355.48	7.0	stimulus	11	high_cue	low_stim	n/a	n/a	n/a	n/a	n/a	n/a	dn124t1aaunaff_L.mp4
380.28	7.01	stimulus	12	low_cue	low_stim	n/a	n/a	n/a	n/a	n/a	n/a	tv095t2aeunaff_L.mp4
23.91	1.99	outcomerating	1	high_cue	high_stim	78.15	Very Strong	78.15	Very Strong	0.7	1.29	task-vicarious_scale.png
58.51	2.48	outcomerating	2	low_cue	high_stim	64.89	Very Strong	64.89	Very Strong	0.33	2.15	task-vicarious_scale.png
81.9	3.93	outcomerating	3	low_cue	high_stim	79.82	Very Strong	79.82	Very Strong	1.52	2.42	task-vicarious_scale.png
115.61	3.67	outcomerating	4	high_cue	high_stim	93.48	Very Strong	93.48	Very Strong	0.32	3.36	task-vicarious_scale.png
149.01	1.88	outcomerating	5	low_cue	low_stim	0.0		0.0		0.4	1.48	task-vicarious_scale.png
208.4	3.17	outcomerating	6	high_cue	low_stim	18.94	Moderate	18.94	Moderate	1.02	2.15	task-vicarious_scale.png
241.41	3.55	outcomerating	7	low_cue	med_stim	11.45	Moderate	11.45	Moderate	0.9	2.65	task-vicarious_scale.png
274.0	2.12	outcomerating	8	high_cue	med_stim	23.35	Moderate	23.35	Moderate	0.23	1.88	task-vicarious_scale.png
302.8	3.42	outcomerating	9	high_cue	med_stim	78.92	Very Strong	78.92	Very Strong	0.95	2.47	task-vicarious_scale.png
335.01	2.46	outcomerating	10	low_cue	med_stim	9.54	Weak	9.54	Weak	0.43	2.02	task-vicarious_scale.png
365.3	3.32	outcomerating	11	high_cue	low_stim	96.93	Very Strong	96.93	Very Strong	0.8	2.52	task-vicarious_scale.png
395.0	3.23	outcomerating	12	low_cue	low_stim	22.66	Moderate	22.66	Moderate	1.03	2.2	task-vicarious_scale.png
