onset	duration	trial_type	trial_index	cue	stimulusintensity	rating_value	rating_glmslabel	rating_value_fillna	rating_glmslabel_fillna	rating_mouseonset	rating_mousedur	stim_file	onset_ttl1	onset_ttl2	onset_ttl3	onset_ttl4	stimulus_delivery_success
8.08	1.0	cue	1	high_cue	n/a	n/a	n/a	n/a	n/a	n/a	n/a	h044.png	n/a	n/a	n/a	n/a	n/a
52.38	1.0	cue	2	low_cue	n/a	n/a	n/a	n/a	n/a	n/a	n/a	l015.png	n/a	n/a	n/a	n/a	n/a
93.2	0.98	cue	3	high_cue	n/a	n/a	n/a	n/a	n/a	n/a	n/a	h032.png	n/a	n/a	n/a	n/a	n/a
123.39	1.0	cue	4	low_cue	n/a	n/a	n/a	n/a	n/a	n/a	n/a	l021.png	n/a	n/a	n/a	n/a	n/a
151.29	1.0	cue	5	high_cue	n/a	n/a	n/a	n/a	n/a	n/a	n/a	h010.png	n/a	n/a	n/a	n/a	n/a
188.38	1.0	cue	6	high_cue	n/a	n/a	n/a	n/a	n/a	n/a	n/a	h004.png	n/a	n/a	n/a	n/a	n/a
218.19	1.0	cue	7	low_cue	n/a	n/a	n/a	n/a	n/a	n/a	n/a	l044.png	n/a	n/a	n/a	n/a	n/a
246.19	1.0	cue	8	high_cue	n/a	n/a	n/a	n/a	n/a	n/a	n/a	h049.png	n/a	n/a	n/a	n/a	n/a
277.58	1.0	cue	9	low_cue	n/a	n/a	n/a	n/a	n/a	n/a	n/a	l056.png	n/a	n/a	n/a	n/a	n/a
309.69	1.0	cue	10	low_cue	n/a	n/a	n/a	n/a	n/a	n/a	n/a	l001.png	n/a	n/a	n/a	n/a	n/a
339.19	1.0	cue	11	high_cue	n/a	n/a	n/a	n/a	n/a	n/a	n/a	h022.png	n/a	n/a	n/a	n/a	n/a
371.68	1.0	cue	12	low_cue	n/a	n/a	n/a	n/a	n/a	n/a	n/a	l033.png	n/a	n/a	n/a	n/a	n/a
10.0		expectrating	1	high_cue	n/a			102.5	Strongest sensation of any kind	1.33	3.85	h044.png	n/a	n/a	n/a	n/a	n/a
55.0	2.13	expectrating	2	low_cue	n/a	14.23	Moderate	14.23	Moderate	1.22	0.92	l015.png	n/a	n/a	n/a	n/a	n/a
96.1	2.97	expectrating	3	high_cue	n/a	82.3	Very Strong	82.3	Very Strong	0.72	2.25	h032.png	n/a	n/a	n/a	n/a	n/a
126.69	2.37	expectrating	4	low_cue	n/a	26.88	Moderate	26.88	Moderate	0.5	1.87	l021.png	n/a	n/a	n/a	n/a	n/a
153.1	2.27	expectrating	5	high_cue	n/a	103.92	Strongest sensation of any kind	103.92	Strongest sensation of any kind	0.7	1.57	h010.png	n/a	n/a	n/a	n/a	n/a
190.5	2.13	expectrating	6	high_cue	n/a	54.97	Strong	54.97	Strong	0.72	1.42	h004.png	n/a	n/a	n/a	n/a	n/a
220.29	3.25	expectrating	7	low_cue	n/a	41.58	Strong	41.58	Strong	1.07	2.19	l044.png	n/a	n/a	n/a	n/a	n/a
248.69	1.63	expectrating	8	high_cue	n/a	80.34	Very Strong	80.34	Very Strong	0.65	0.98	h049.png	n/a	n/a	n/a	n/a	n/a
280.7	1.32	expectrating	9	low_cue	n/a	30.6	Strong	30.6	Strong	0.3	1.02	l056.png	n/a	n/a	n/a	n/a	n/a
312.0	2.34	expectrating	10	low_cue	n/a	48.12	Strong	48.12	Strong	0.7	1.64	l001.png	n/a	n/a	n/a	n/a	n/a
342.29	3.21	expectrating	11	high_cue	n/a	121.88	Strongest sensation of any kind	121.88	Strongest sensation of any kind	0.87	2.34	h022.png	n/a	n/a	n/a	n/a	n/a
374.0	1.5	expectrating	12	low_cue	n/a	62.82	Strong	62.82	Strong	0.58	0.92	l033.png	n/a	n/a	n/a	n/a	n/a
21.37	10.96	stimulus	1	high_cue	low_stim	n/a	n/a	n/a	n/a	n/a	n/a	48c	21.39	24.08	29.08	32.35	success
67.04	11.37	stimulus	2	low_cue	med_stim	n/a	n/a	n/a	n/a	n/a	n/a	49c	67.07	69.93	74.93	78.44	success
103.6	11.68	stimulus	3	high_cue	high_stim	n/a	n/a	n/a	n/a	n/a	n/a	50c	103.65	106.69	111.69	115.33	success
132.72	11.84	stimulus	4	low_cue	high_stim	n/a	n/a	n/a	n/a	n/a	n/a	50c	132.76	135.8	140.8	144.61	success
165.14	11.08	stimulus	5	high_cue	low_stim	n/a	n/a	n/a	n/a	n/a	n/a	48c	165.17	167.9	172.9	176.26	success
196.54	11.52	stimulus	6	high_cue	med_stim	n/a	n/a	n/a	n/a	n/a	n/a	49c	196.58	199.47	204.47	208.09	success
228.21	11.81	stimulus	7	low_cue	high_stim	n/a	n/a	n/a	n/a	n/a	n/a	50c	228.25	231.31	236.31	240.07	success
255.74	11.47	stimulus	8	high_cue	med_stim	n/a	n/a	n/a	n/a	n/a	n/a	49c	255.78	258.68	263.68	267.25	success
290.54	11.11	stimulus	9	low_cue	low_stim	n/a	n/a	n/a	n/a	n/a	n/a	48c	290.57	293.31	298.31	301.68	success
318.02	11.15	stimulus	10	low_cue	low_stim	n/a	n/a	n/a	n/a	n/a	n/a	48c	318.06	320.8	325.8	329.21	success
352.6	11.85	stimulus	11	high_cue	high_stim	n/a	n/a	n/a	n/a	n/a	n/a	50c	352.65	355.74	360.74	364.5	success
380.02	11.5	stimulus	12	low_cue	med_stim	n/a	n/a	n/a	n/a	n/a	n/a	49c	380.05	382.95	387.95	391.56	success
39.59	2.16	outcomerating	1	high_cue	low_stim	28.25	Moderate	28.25	Moderate	0.47	1.69	task-pain_scale.png	n/a	n/a	n/a	n/a	success
83.89	2.06	outcomerating	2	low_cue	med_stim	56.5	Strong	56.5	Strong	0.57	1.49	task-pain_scale.png	n/a	n/a	n/a	n/a	success
116.39	3.13	outcomerating	3	high_cue	high_stim	84.2	Very Strong	84.2	Very Strong	0.8	2.33	task-pain_scale.png	n/a	n/a	n/a	n/a	success
143.0	1.5	outcomerating	4	low_cue	high_stim	67.23	Very Strong	67.23	Very Strong	0.77	0.73	task-pain_scale.png	n/a	n/a	n/a	n/a	success
177.7	2.12	outcomerating	5	high_cue	low_stim	75.15	Very Strong	75.15	Very Strong	0.72	1.4	task-pain_scale.png	n/a	n/a	n/a	n/a	success
207.49	3.11	outcomerating	6	high_cue	med_stim	102.75	Strongest sensation of any kind	102.75	Strongest sensation of any kind	0.92	2.19	task-pain_scale.png	n/a	n/a	n/a	n/a	success
239.18	3.48	outcomerating	7	low_cue	high_stim	101.67	Strongest sensation of any kind	101.67	Strongest sensation of any kind	0.78	2.7	task-pain_scale.png	n/a	n/a	n/a	n/a	success
268.3	1.44	outcomerating	8	high_cue	med_stim	61.45	Strong	61.45	Strong	0.68	0.75	task-pain_scale.png	n/a	n/a	n/a	n/a	success
305.19	2.31	outcomerating	9	low_cue	low_stim	52.85	Strong	52.85	Strong	0.6	1.71	task-pain_scale.png	n/a	n/a	n/a	n/a	success
330.79	2.8	outcomerating	10	low_cue	low_stim	51.38	Strong	51.38	Strong	0.77	2.03	task-pain_scale.png	n/a	n/a	n/a	n/a	success
366.9	2.22	outcomerating	11	high_cue	high_stim	111.49	Strongest sensation of any kind	111.49	Strongest sensation of any kind	0.25	1.97	task-pain_scale.png	n/a	n/a	n/a	n/a	success
394.79	3.69	outcomerating	12	low_cue	med_stim	84.95	Very Strong	84.95	Very Strong	0.6	3.09	task-pain_scale.png	n/a	n/a	n/a	n/a	success
