ISI01_biopac,ISI01_duration,ISI01_onset,ISI02_biopac,ISI02_duration,ISI02_onset,ISI03_biopac,ISI03_duration,ISI03_onset,ITI_biopac,ITI_duration,ITI_onset,delay_between_medoc,event01_cue_biopac,event01_cue_filename,event01_cue_onset,event01_cue_type,event02_expect_RT,event02_expect_angle,event02_expect_angle_label,event02_expect_biopac,event02_expect_displayonset,event02_expect_responseonset,event03_stimulusC_RT,event03_stimulusC_reseponseonset,event03_stimulusC_response,event03_stimulusC_responsekeyname,event03_stimulus_C_stim_filename,event03_stimulus_C_stim_match,event03_stimulus_C_stim_num,event03_stimulus_P_delay_between_medoc,event03_stimulus_P_trigger,event03_stimulus_V_filename,event03_stimulus_V_patientid,event03_stimulus_biopac,event03_stimulus_displayonset,event03_stimulus_type,event04_actual_RT,event04_actual_angle,event04_actual_angle_label,event04_actual_biopac,event04_actual_displayonset,event04_actual_responseonset,param_cond_type,param_counterbalance_block_num,param_counterbalance_ver,param_cue_type,param_end_biopac,param_end_instruct_onset,param_experiment_duration,param_run_num,param_start_biopac,param_stimulus_type,param_task_name,param_trigger_onset,session_id,src_subject_id,trial_no
1616681073.9218302,1.68731832504272,1616681073.91158,1616681079.66977,6.33514928817749,1616681079.66375,1616681095.02162,7.0793559551239005,1616681095.01954,1616681072.32395,0.589434385299683,1616681072.31098,0.0823500156402588,1616681072.92207,l022.png,1616681072.9112,low_cue,1.78983807563782,42.854475645103,FIX,1616681075.6528,1616681075.64557,1616681077.43541,0,0,0,,,,0,0,Command Recieved: TRIGGER_AND_Response: RESULT_OK,,,1616681086.10785,1616681086.1066,high_stim,,,FIX,1616681102.12395,1616681102.12222,,3,1,3,low_cue,1616681468.14555,1616681468.1436,398.633279800415,0,1616681069.51584,high_stim,pain,1616681069.51032,4,2,1
1616681116.52137,2.08791589736938,1616681116.5109801,1616681122.63232,4.46894264221191,1616681122.62996,1616681136.12044,9.38052105903625,1616681136.11838,1616681106.28726,9.22622442245483,1616681106.2737901,0.0528068542480469,1616681115.52105,h047.png,1616681115.5106099,high_cue,1.7907030582427998,120.57024775024401,FIX,1616681118.61954,1616681118.6117802,1616681120.4024801,0,0,0,,,,0,0,Command Recieved: TRIGGER_AND_Response: RESULT_OK,,,1616681127.15427,1616681127.15258,med_stim,3.3682615756988503,112.83365417791799,FIX,1616681145.5231302,1616681145.52193,1616681148.8901901,5,1,3,high_cue,1616681468.14555,1616681468.1436,398.633279800415,0,1616681069.51584,med_stim,pain,1616681069.51032,4,2,2
1616681151.22117,2.0914952754974396,1616681151.2074,1616681157.34539,0.455848455429077,1616681157.34305,1616681166.82067,0.48560929298400896,1616681166.81329,1616681149.5705,0.643252611160278,1616681149.55678,0.0456311702728271,1616681150.22124,l014.png,1616681150.20703,low_cue,3.2680926322937,84.9993554024416,FIX,1616681153.3270302,1616681153.3248699,1616681156.59296,0,0,0,,,,0,0,Command Recieved: TRIGGER_AND_Response: RESULT_OK,,,1616681157.84743,1616681157.84542,low_stim,3.1056675910949703,71.9601882195855,FIX,1616681167.31995,1616681167.3134801,1616681170.41915,1,1,3,low_cue,1616681468.14555,1616681468.1436,398.633279800415,0,1616681069.51584,low_stim,pain,1616681069.51032,4,2,3
1616681180.82121,0.48032736778259294,1616681180.81857,1616681185.3390698,0.761956691741943,1616681185.33694,1616681195.12091,9.09160566329956,1616681195.10729,1616681171.3543801,8.45178174972534,1616681171.34833,0.0444200038909912,1616681179.82089,l042.png,1616681179.81819,low_cue,3.46876430511475,36.3158864239452,FIX,1616681181.31967,1616681181.31876,1616681184.78752,0,0,0,,,,0,0,Command Recieved: TRIGGER_AND_Response: RESULT_OK,,,1616681186.1452599,1616681186.14419,low_stim,2.2417051792144798,38.6963722437105,FIX,1616681204.22838,1616681204.2274,1616681206.46911,1,1,3,low_cue,1616681468.14555,1616681468.1436,398.633279800415,0,1616681069.51584,low_stim,pain,1616681069.51032,4,2,4
1616681214.32154,2.08436012268066,1616681214.3145401,1616681220.58765,3.51532912254333,1616681220.58357,1616681233.1245801,2.9772663116455096,1616681233.1216302,1616681208.2720098,5.03822374343872,1616681208.26226,0.0555012226104736,1616681213.32142,h031.png,1616681213.3141599,high_cue,3.6206247806549103,129.12737171893298,FIX,1616681216.41963,1616681216.4153302,1616681220.03596,0,0,0,,,,0,0,Command Recieved: TRIGGER_AND_Response: RESULT_OK,,,1616681224.15763,1616681224.15569,low_stim,,,FIX,1616681236.1234698,1616681236.12276,,4,1,3,high_cue,1616681468.14555,1616681468.1436,398.633279800415,0,1616681069.51584,low_stim,pain,1616681069.51032,4,2,5
1616681241.8210099,0.9906868934631351,1616681241.80824,1616681246.96161,0.338746547698975,1616681246.96019,1616681256.31588,2.78518652915955,1616681256.31371,1616681240.18771,0.6256422996520999,1616681240.17429,0.0969948768615723,1616681240.82105,h003.png,1616681240.80786,high_cue,3.60164570808411,100.859503235322,FIX,1616681242.82019,1616681242.80862,1616681246.41026,0,0,0,,,,0,0,Command Recieved: TRIGGER_AND_Response: RESULT_OK,,,1616681247.39721,1616681247.39646,med_stim,,,FIX,1616681259.12013,1616681259.11477,,5,1,3,high_cue,1616681468.14555,1616681468.1436,398.633279800415,0,1616681069.51584,med_stim,pain,1616681069.51032,4,2,6
1616681271.60414,0.9960887432098392,1616681271.60281,1616681276.88974,6.71076130867004,1616681276.88814,1616681292.62587,3.58816623687744,1616681292.6107302,1616681263.15404,7.450240850448611,1616681263.1496198,0.0244548320770264,1616681270.62079,h030.png,1616681270.6191099,high_cue,3.71821141242981,58.5150226234111,FIX,1616681272.62094,1616681272.61986,1616681276.33807,0,0,0,,,,0,0,Command Recieved: TRIGGER_AND_Response: RESULT_OK,,,1616681283.6252599,1616681283.6240802,low_stim,2.34083318710327,54.02454062622271,FIX,1616681296.22054,1616681296.21209,1616681298.55293,4,1,3,high_cue,1616681468.14555,1616681468.1436,398.633279800415,0,1616681069.51584,low_stim,pain,1616681069.51032,4,2,7
1616681305.32137,1.48337459564209,1616681305.31553,1616681310.83801,7.96462416648865,1616681310.83427,1616681327.8213198,2.0915563106536896,1616681327.8073401,1616681300.23776,4.06956481933594,1616681300.23027,0.0668990612030029,1616681304.3209,l047.png,1616681304.31515,low_cue,2.80358123779297,19.5582515369974,FIX,1616681306.82048,1616681306.81609,1616681309.61967,0,0,0,,,,0,0,Command Recieved: TRIGGER_AND_Response: RESULT_OK,,,1616681318.8694,1616681318.8673,high_stim,3.36813926696777,50.13452743503451,FIX,1616681329.92022,1616681329.9081302,1616681333.27627,3,1,3,low_cue,1616681468.14555,1616681468.1436,398.633279800415,0,1616681069.51584,high_stim,pain,1616681069.51032,4,2,8
1616681335.61251,2.08861398696899,1616681335.61029,1616681341.9875698,5.419547319412231,1616681341.97935,1616681356.42162,3.08076620101929,1616681356.4181302,1616681333.93762,0.67345929145813,1616681333.9263198,0.0704090595245361,1616681334.6212099,l051.png,1616681334.60991,low_cue,3.72526574134827,24.2702732593095,FIX,1616681337.7207599,1616681337.71108,1616681341.43634,0,0,0,,,,0,0,Command Recieved: TRIGGER_AND_Response: RESULT_OK,,,1616681347.4705,1616681347.46979,med_stim,1.91748189926147,25.423438552905502,FIX,1616681359.5204198,1616681359.5193,1616681361.43678,2,1,3,low_cue,1616681468.14555,1616681468.1436,398.633279800415,0,1616681069.51584,med_stim,pain,1616681069.51032,4,2,9
1616681366.00724,0.893818616867065,1616681366.00508,1616681370.94171,7.65862441062927,1616681370.94027,1616681387.62149,3.5856702327728303,1616681387.61323,1616681363.55449,1.46221947669983,1616681363.53748,0.0392820835113525,1616681365.02133,l033.png,1616681365.0047,low_cue,2.96808648109436,13.924773220409401,FIX,1616681366.92313,1616681366.92209,1616681369.89018,0,0,0,,,,0,0,Command Recieved: TRIGGER_AND_Response: RESULT_OK,,,1616681378.64026,1616681378.63917,med_stim,,,FIX,1616681391.22066,1616681391.21459,,2,1,3,low_cue,1616681468.14555,1616681468.1436,398.633279800415,0,1616681069.51584,med_stim,pain,1616681069.51032,4,2,10
1616681408.40606,1.69449663162231,1616681408.4044,1616681414.15816,1.3423261642456101,1616681414.15657,1616681424.52192,0.48842215538024897,1616681424.5104802,1616681395.25461,12.1503448486328,1616681395.24944,0.0499169826507568,1616681407.42139,h037.png,1616681407.40403,high_cue,3.4848864078521697,125.922946199071,FIX,1616681410.12282,1616681410.1217198,1616681413.6066,0,0,0,,,,0,0,Command Recieved: TRIGGER_AND_Response: RESULT_OK,,,1616681415.55131,1616681415.54974,high_stim,,,FIX,1616681425.02106,1616681425.01067,,6,1,3,high_cue,1616681468.14555,1616681468.1436,398.633279800415,0,1616681069.51584,high_stim,pain,1616681069.51032,4,2,11
1616681433.1150699,1.18517923355103,1616681433.11372,1616681438.33796,7.66654300689697,1616681438.33236,1616681455.0070002,9.09359049797058,1616681455.00531,1616681429.05459,3.05431365966797,1616681429.0455198,0.0507869720458984,1616681432.12167,h001.png,1616681432.1133401,high_cue,,,FIX,1616681434.32096,1616681434.31417,,0,0,0,,,,0,0,Command Recieved: TRIGGER_AND_Response: RESULT_OK,,,1616681446.05177,1616681446.05041,high_stim,,,FIX,1616681464.12099,1616681464.10874,,6,1,3,high_cue,1616681468.14555,1616681468.1436,398.633279800415,0,1616681069.51584,high_stim,pain,1616681069.51032,4,2,12
1616681611.70626,1.59146523475647,1616681611.69773,1616681617.3396301,0.556007146835327,1616681617.33319,1616681626.90649,1.98573279380798,1616681626.90346,1616681607.8062901,2.89461255073547,1616681607.7962599,0.0405731201171875,1616681610.7063901,h024.png,1616681610.69735,high_cue,1.98919773101807,110.64046919509501,FIX,1616681613.32185,1616681613.31501,1616681615.3042,0,0,0,,,,0,0,Command Recieved: TRIGGER_AND_Response: RESULT_OK,,,1616681617.9361901,1616681617.93497,high_stim,3.9349176883697496,98.130102354156,FIX,1616681628.9048,1616681628.9042199,1616681632.8391302,6,2,3,high_cue,1616682004.04066,1616682004.02899,399.01553034782404,1,1616681605.01556,high_stim,pain,1616681605.01346,4,2,13
1616681635.0088198,1.9826762676238998,1616681635.00652,1616681641.0269,5.86374044418335,1616681641.02545,1616681655.90605,4.29146647453308,1616681655.89773,1616681633.40763,0.584350347518921,1616681633.40591,0.079132080078125,1616681634.00757,l046.png,1616681634.00614,low_cue,3.21804523468018,56.7005794628158,FIX,1616681637.0083802,1616681637.0072699,1616681640.2253199,0,0,0,,,,0,0,Command Recieved: TRIGGER_AND_Response: RESULT_OK,,,1616681646.97005,1616681646.96899,high_stim,,,FIX,1616681660.20501,1616681660.19935,,3,2,3,low_cue,1616682004.04066,1616682004.02899,399.01553034782404,1,1616681605.01556,high_stim,pain,1616681605.01346,4,2,14
1616681665.80605,1.3877317905426,1616681665.80146,1616681671.22262,0.9690222740173341,1616681671.22017,1616681681.2092,5.48192238807678,1616681681.20727,1616681664.23576,0.555805444717407,1616681664.23421,0.045543909072876,1616681664.80616,l017.png,1616681664.80109,low_cue,1.88584160804749,46.3720916494606,FIX,1616681667.20525,1616681667.2019901,1616681669.08783,0,0,0,,,,0,0,Command Recieved: TRIGGER_AND_Response: RESULT_OK,,,1616681672.2366,1616681672.23545,high_stim,3.5681452751159703,38.948267891206,FIX,1616681686.7102098,1616681686.70935,1616681690.2774901,3,2,3,low_cue,1616682004.04066,1616682004.02899,399.01553034782404,1,1616681605.01556,high_stim,pain,1616681605.01346,4,2,15
1616681700.90645,1.39116549491882,1616681700.89803,1616681706.3399599,1.15578293800354,1616681706.33341,1616681716.5061,3.88528108596802,1616681716.50391,1616681690.84553,9.04590058326721,1616681690.84424,0.0340559482574463,1616681699.9061198,h039.png,1616681699.89765,high_cue,2.8895583152771,101.08489129224199,FIX,1616681702.32203,1616681702.3152301,1616681705.20479,0,0,0,,,,0,0,Command Recieved: TRIGGER_AND_Response: RESULT_OK,,,1616681707.52459,1616681707.5238,high_stim,2.78458166122437,83.4270050135266,FIX,1616681720.40633,1616681720.40539,1616681723.18997,6,2,3,high_cue,1616682004.04066,1616682004.02899,399.01553034782404,1,1616681605.01556,high_stim,pain,1616681605.01346,4,2,16
1616681726.00933,1.98169779777527,1616681726.0075,1616681732.0279698,11.1627616882324,1616681732.0264301,1616681752.2068,4.28848838806152,1616681752.20071,1616681724.43965,0.5664412975311279,1616681724.42357,0.0388760566711426,1616681725.0088902,l013.png,1616681725.00712,low_cue,2.35110259056091,56.567439861599105,FIX,1616681728.00975,1616681728.00825,1616681730.35935,0,0,0,,,,0,0,Command Recieved: TRIGGER_AND_Response: RESULT_OK,,,1616681743.22929,1616681743.22854,low_stim,3.76927018165588,32.7068268793835,FIX,1616681756.50584,1616681756.50233,1616681760.2716,1,2,3,low_cue,1616682004.04066,1616682004.02899,399.01553034782404,1,1616681605.01556,low_stim,pain,1616681605.01346,4,2,17
1616681768.40859,1.98237776756287,1616681768.4068198,1616681774.42738,19.6634421348572,1616681774.42575,1616681803.10724,9.68596076965332,1616681803.10323,1616681760.83978,6.552854299545291,1616681760.8373,0.036729097366333,1616681767.4082901,h032.png,1616681767.40644,high_cue,3.16800212860107,88.1066141542537,FIX,1616681770.40871,1616681770.40757,1616681773.5755801,0,0,0,,,,0,0,Command Recieved: TRIGGER_AND_Response: RESULT_OK,,,1616681794.12755,1616681794.12667,low_stim,2.98462319374084,27.597295868643698,FIX,1616681812.80771,1616681812.80689,1616681815.7915199,4,2,3,high_cue,1616682004.04066,1616682004.02899,399.01553034782404,1,1616681605.01556,low_stim,pain,1616681605.01346,4,2,18
1616681821.40693,1.1957321166992199,1616681821.39346,1616681826.6305401,3.36042404174805,1616681826.6287699,1616681839.00661,6.589092254638669,1616681839.0001,1616681816.841,3.56517934799194,1616681816.82507,0.0592668056488037,1616681820.41182,l022.png,1616681820.40976,low_cue,3.0679690837860094,41.250935477652,FIX,1616681822.61205,1616681822.61059,1616681825.67856,0,0,0,,,,0,0,Command Recieved: TRIGGER_AND_Response: RESULT_OK,,,1616681830.04975,1616681830.04896,med_stim,,,FIX,1616681845.6058,1616681845.60259,,2,2,3,low_cue,1616682004.04066,1616682004.02899,399.01553034782404,1,1616681605.01556,med_stim,pain,1616681605.01346,4,2,19
1616681857.7089,1.58204007148743,1616681857.70716,1616681863.3274698,0.5632545948028559,1616681863.3259401,1616681872.90671,2.19298005104065,1616681872.89621,1616681849.6400099,7.05263328552246,1616681849.63745,0.0431180000305176,1616681856.70841,h014.png,1616681856.7067802,high_cue,,,FIX,1616681859.3086,1616681859.30776,,0,0,0,,,,0,0,Command Recieved: TRIGGER_AND_Response: RESULT_OK,,,1616681863.93451,1616681863.9329998,med_stim,3.52491927146912,26.667731675598997,FIX,1616681875.10643,1616681875.09704,1616681878.62196,5,2,3,high_cue,1616682004.04066,1616682004.02899,399.01553034782404,1,1616681605.01556,med_stim,pain,1616681605.01346,4,2,20
1616681886.00731,0.888038396835327,1616681886.00116,1616681891.20686,1.6860761642456101,1616681891.20312,1616681901.90879,2.3820424079894997,1616681901.90715,1616681879.19014,5.808132410049441,1616681879.1819198,0.0530610084533691,1616681885.00732,h001.png,1616681885.00078,high_cue,3.75389909744263,89.0248468569075,FIX,1616681886.90661,1616681886.9015,1616681890.6554,0,0,0,,,,0,0,Command Recieved: TRIGGER_AND_Response: RESULT_OK,,,1616681892.94437,1616681892.9432,med_stim,2.88467645645142,44.8367646025811,FIX,1616681904.3091302,1616681904.30806,1616681907.1927302,5,2,3,high_cue,1616682004.04066,1616682004.02899,399.01553034782404,1,1616681605.01556,med_stim,pain,1616681605.01346,4,2,21
1616681914.4075,1.9940001964569098,1616681914.39519,1616681920.43998,1.55839037895203,1616681920.4308,1616681931.00767,5.487738370895389,1616681931.00146,1616681908.3404,5.0637137889862105,1616681908.32624,0.0329079627990723,1616681913.4074302,l004.png,1616681913.39482,low_cue,,,FIX,1616681916.41375,1616681916.4126198,,0,0,0,,,,0,0,Command Recieved: TRIGGER_AND_Response: RESULT_OK,,,1616681922.02452,1616681922.0229099,med_stim,3.5687873363494904,46.3093898194106,FIX,1616681936.5063,1616681936.50353,1616681940.07232,2,2,3,low_cue,1616682004.04066,1616682004.02899,399.01553034782404,1,1616681605.01556,med_stim,pain,1616681605.01346,4,2,22
1616681947.1094599,0.881667613983154,1616681947.10753,1616681952.0279999,5.863144397735599,1616681952.02605,1616681966.90766,2.7908694744110094,1616681966.89832,1616681940.64057,5.451611518859861,1616681940.6384199,0.0649330615997314,1616681946.10854,h011.png,1616681946.10715,high_cue,2.25096821784973,97.12501634890181,FIX,1616681948.00893,1616681948.00787,1616681950.25884,0,0,0,,,,0,0,Command Recieved: TRIGGER_AND_Response: RESULT_OK,,,1616681957.95537,1616681957.9546402,low_stim,,,FIX,1616681969.70681,1616681969.6993802,,4,2,3,high_cue,1616682004.04066,1616682004.02899,399.01553034782404,1,1616681605.01556,low_stim,pain,1616681605.01346,4,2,23
1616681980.3075,0.88581657409668,1616681980.30338,1616681985.22385,0.7672970294952389,1616681985.2219,1616681995.0109599,4.98027348518372,1616681995.00892,1616681973.7405698,5.555805206298831,1616681973.73423,0.056879997253417997,1616681979.3080301,l056.png,1616681979.303,low_cue,,,FIX,1616681981.20677,1616681981.2037199,,0,0,0,,,,0,0,Command Recieved: TRIGGER_AND_Response: RESULT_OK,,,1616681986.04794,1616681986.04686,low_stim,2.56782102584839,11.218842281268802,FIX,1616682000.0120099,1616682000.01081,1616682002.57863,1,2,3,low_cue,1616682004.04066,1616682004.02899,399.01553034782404,1,1616681605.01556,low_stim,pain,1616681605.01346,4,2,24
1616507274.45004,0.689458131790161,1616507274.43888,1616507279.5996,4.3375387191772505,1616507279.5908,1616507292.95019,0.9825584888458249,1616507292.94578,1616507265.6505198,7.79388666152954,1616507265.63559,0.0788400173187256,1616507273.45117,l013.png,1616507273.4385,low_cue,3.8923099040985094,38.1182763693631,FIX,1616507275.1663198,1616507275.1558099,1616507279.04812,0,0,0,,,,0,0,Command Recieved: TRIGGER_AND_Response: RESULT_OK,,,1616507284.02245,1616507284.02151,low_stim,2.6853272914886497,54.057888128617705,FIX,1616507293.9493198,1616507293.94615,1616507296.63148,1,2,3,low_cue,1616507661.68891,1616507661.68329,398.824369668961,2,1616507262.86075,low_stim,pain,1616507262.8589199,3,2,25
1616507299.5504801,1.28009510040283,1616507299.54824,1616507304.86805,1.7614467144012498,1616507304.86689,1616507315.65018,3.49076247215271,1616507315.63757,1616507297.9836,0.54849648475647,1616507297.98099,0.0422141551971436,1616507298.5501401,l004.png,1616507298.54787,low_cue,2.1176373958587598,25.523424501068,FIX,1616507300.84934,1616507300.8487198,1616507302.9663599,0,0,0,,,,0,0,Command Recieved: TRIGGER_AND_Response: RESULT_ILLEGAL_STATE,,,1616507306.67209,1616507306.67114,med_stim,3.0260472297668497,7.1250163489018,FIX,1616507319.1487901,1616507319.13888,1616507322.16493,2,2,3,low_cue,1616507661.68891,1616507661.68329,398.824369668961,2,1616507262.86075,med_stim,pain,1616507262.8589199,3,2,26
1616507325.1499698,1.88721990585327,1616507325.14112,1616507331.06717,3.9683451652526895,1616507331.05999,1616507344.05069,5.08016800880432,1616507344.0481699,1616507323.17567,0.955740451812744,1616507323.17372,0.0534100532531738,1616507324.15008,l046.png,1616507324.1407402,low_cue,3.1731219291687,60.284232409654294,FIX,1616507327.04913,1616507327.04183,1616507330.21495,0,0,0,,,,0,0,Command Recieved: TRIGGER_AND_Response: RESULT_OK,,,1616507335.0836,1616507335.0825698,low_stim,2.90122032165527,41.0995062576181,FIX,1616507349.15112,1616507349.15007,1616507352.05129,1,2,3,low_cue,1616507661.68891,1616507661.68329,398.824369668961,2,1616507262.86075,low_stim,pain,1616507262.8589199,3,2,27
1616507355.14994,1.3927001953125,1616507355.1356401,1616507360.5728,2.05734038352966,1616507360.571,1616507371.65054,3.48654532432556,1616507371.6417902,1616507353.18704,0.9445698261260991,1616507353.18491,0.0430099964141846,1616507354.14975,l036.png,1616507354.1352599,low_cue,2.61780881881714,37.1066557177511,FIX,1616507356.55347,1616507356.55283,1616507359.17064,0,0,0,,,,0,0,Command Recieved: TRIGGER_AND_Response: RESULT_OK,,,1616507362.6728,1616507362.67187,high_stim,2.05506610870361,55.026926817785395,FIX,1616507375.14893,1616507375.1431,1616507377.19816,3,2,3,low_cue,1616507661.68891,1616507661.68329,398.824369668961,2,1616507262.86075,high_stim,pain,1616507262.8589199,3,2,28
1616507383.85084,1.88199257850647,1616507383.84634,1616507389.7678099,4.86311817169189,1616507389.76522,1616507403.65048,1.9912800788879401,1616507403.63706,1616507379.1811,3.6520838737487797,1616507379.1779401,0.0348441600799561,1616507382.85112,h021.png,1616507382.84597,high_cue,1.96784019470215,113.892502308027,FIX,1616507385.74893,1616507385.74705,1616507387.71489,0,0,0,,,,0,0,Command Recieved: TRIGGER_AND_Response: RESULT_OK,,,1616507394.6656199,1616507394.66404,med_stim,2.73459219932556,60.026051339764,FIX,1616507405.65549,1616507405.65448,1616507408.38907,5,2,3,high_cue,1616507661.68891,1616507661.68329,398.824369668961,2,1616507262.86075,med_stim,pain,1616507262.8589199,3,2,29
1616507417.7497199,0.886019468307495,1616507417.7423198,1616507422.66617,7.96751809120178,1616507422.66082,1616507439.65005,7.39452314376831,1616507439.63381,1616507409.6909199,7.04010534286499,1616507409.68931,0.0456860065460205,1616507416.7504199,h031.png,1616507416.74194,high_cue,,,FIX,1616507418.64919,1616507418.64265,,0,0,0,,,,0,0,Command Recieved: TRIGGER_AND_Response: RESULT_OK,,,1616507430.6758301,1616507430.67473,high_stim,2.96812105178833,63.639941792646894,FIX,1616507447.04891,1616507447.03658,1616507450.0047,6,2,3,high_cue,1616507661.68891,1616507661.68329,398.824369668961,2,1616507262.86075,high_stim,pain,1616507262.8589199,3,2,30
1616507458.04981,1.78765797615051,1616507458.0406802,1616507463.8672,3.1688225269317596,1616507463.85952,1616507476.04962,0.98094367980957,1616507476.04739,1616507451.0664198,5.97446489334106,1616507451.05474,0.0343949794769287,1616507457.04987,h028.png,1616507457.04031,high_cue,2.3235836029052703,111.37062226934299,FIX,1616507459.84941,1616507459.84135,1616507462.16493,0,0,0,,,,0,0,Command Recieved: TRIGGER_AND_Response: RESULT_OK,,,1616507467.06535,1616507467.06355,med_stim,2.86788439750671,70.2362636469036,FIX,1616507477.0490599,1616507477.04777,1616507479.91565,5,2,3,high_cue,1616507661.68891,1616507661.68329,398.824369668961,2,1616507262.86075,med_stim,pain,1616507262.8589199,3,2,31
1616507483.0497801,1.8950033187866202,1616507483.03333,1616507488.97071,6.35945701599121,1616507488.9688802,1616507504.3506598,1.18705821037292,1616507504.34128,1616507481.06679,0.963367223739624,1616507481.0659301,0.0155620574951172,1616507482.05143,h001.png,1616507482.0496302,high_cue,3.0681619644165,98.0651411807292,FIX,1616507484.95181,1616507484.9507198,1616507488.0188801,0,0,0,,,,0,0,Command Recieved: TRIGGER_AND_Response: RESULT_ILLEGAL_STATE,,,1616507495.34514,1616507495.3443801,low_stim,2.9065113067627,13.811334791861698,FIX,1616507505.5494199,1616507505.5417302,1616507508.44824,4,2,3,high_cue,1616507661.68891,1616507661.68329,398.824369668961,2,1616507262.86075,low_stim,pain,1616507262.8589199,3,2,32
1616507515.25011,1.38299226760864,1616507515.24534,1616507520.6664698,6.8643057346344,1616507520.66403,1616507536.55124,7.09171748161316,1616507536.53662,1616507509.5785599,4.652668476104741,1616507509.57656,0.06583809852600099,1616507514.25059,h043.png,1616507514.2449698,high_cue,2.85238885879517,88.80651057601801,FIX,1616507516.64941,1616507516.64587,1616507519.49826,0,0,0,,,,0,0,Command Recieved: TRIGGER_AND_Response: RESULT_OK,,,1616507527.59536,1616507527.59461,low_stim,3.20130610466003,49.7500548331404,FIX,1616507543.64904,1616507543.63926,1616507546.84057,4,2,3,high_cue,1616507661.68891,1616507661.68329,398.824369668961,2,1616507262.86075,low_stim,pain,1616507262.8589199,3,2,33
1616507549.64979,2.1868314743041997,1616507549.64151,1616507555.8664901,2.96784400939941,1616507555.86049,1616507567.84972,6.2800409793853795,1616507567.84829,1616507547.66604,0.971782207489014,1616507547.6574302,0.0585229396820068,1616507548.6502,h007.png,1616507548.64113,high_cue,,,FIX,1616507551.84862,1616507551.84233,,0,0,0,,,,0,0,Command Recieved: TRIGGER_AND_Response: RESULT_OK,,,1616507558.88878,1616507558.8875198,high_stim,2.9845826625823997,70.3307323359829,FIX,1616507574.1517599,1616507574.15065,1616507577.13523,6,2,3,high_cue,1616507661.68891,1616507661.68329,398.824369668961,2,1616507262.86075,high_stim,pain,1616507262.8589199,3,2,34
1616507590.04995,0.888433933258057,1616507590.0399,1616507594.9602199,8.269931793212889,1616507594.9584,1616507612.2506402,3.8801512718200697,1616507612.24819,1616507578.18674,10.844102859497099,1616507578.18548,0.0568089485168457,1616507589.05072,l027.png,1616507589.03953,low_cue,2.5079898834228502,31.3969122485905,FIX,1616507590.94941,1616507590.9402401,1616507593.44823,0,0,0,,,,0,0,Command Recieved: TRIGGER_AND_Response: RESULT_OK,,,1616507603.28716,1616507603.28584,med_stim,2.35107898712158,54.006539472441304,FIX,1616507616.15068,1616507616.14964,1616507618.50072,2,2,3,low_cue,1616507661.68891,1616507661.68329,398.824369668961,2,1616507262.86075,med_stim,pain,1616507262.8589199,3,2,35
1616507630.24977,1.79010891914368,1616507630.23823,1616507636.0587199,0.571272373199463,1616507636.05706,1616507645.64981,11.984363317489601,1616507645.64397,1616507620.18306,9.06139755249023,1616507620.16781,0.0665521621704102,1616507629.2497,l029.png,1616507629.23786,low_cue,3.2680859565734903,4.592212010919769,FIX,1616507632.0490801,1616507632.0389,1616507635.3069801,0,0,0,,,,0,0,Command Recieved: TRIGGER_AND_Response: RESULT_OK,,,1616507636.69612,1616507636.69539,high_stim,3.11801862716675,32.418449949643104,FIX,1616507657.64956,1616507657.64845,1616507660.76647,3,2,3,low_cue,1616507661.68891,1616507661.68329,398.824369668961,2,1616507262.86075,high_stim,pain,1616507262.8589199,3,2,36
1614870497.49535,2.28280591964722,1614870497.49377,1614870503.81719,4.3637552261352495,1614870503.81282,1614870517.1855302,1.6920459270477302,1614870517.18453,1614870493.5934901,2.88491320610046,1614870493.5923,0.0564639568328857,1614870496.4944198,l018.png,1614870496.49339,low_cue,2.85493230819702,40.9259839041171,FIX,1614870499.79964,1614870499.79464,1614870502.64957,0,0,0,,,,0,0,Command Recieved: TRIGGER_AND_Response: RESULT_OK,,,1614870508.23627,1614870508.2356,med_stim,2.4677507877349902,107.560272051801,FIX,1614870518.89975,1614870518.88517,1614870521.3529198,2,1,3,low_cue,1614870889.9186,1614870889.9084802,399.12182259559603,5,1614870490.78776,med_stim,pain,1614870490.78666,1,2,37
1614870526.78934,1.6884253025054898,1614870526.78815,1614870532.50821,0.969599723815918,1614870532.50697,1614870542.49596,6.4825005531311,1614870542.4940698,1614870522.92096,2.8566489219665496,1614870522.9200199,0.0607309341430664,1614870525.7887099,h017.png,1614870525.78777,high_cue,2.72743773460388,113.68208772453801,FIX,1614870528.49961,1614870528.48879,1614870531.2162302,0,0,0,,,,0,0,Command Recieved: TRIGGER_AND_Response: RESULT_OK,,,1614870533.53796,1614870533.53773,low_stim,2.3031120300293,91.3803540734445,FIX,1614870548.99988,1614870548.99653,1614870551.29964,4,1,3,high_cue,1614870889.9186,1614870889.9084802,399.12182259559603,5,1614870490.78776,low_stim,pain,1614870490.78666,1,2,38
1614870554.4837599,2.19464492797852,1614870554.48193,1614870560.71863,6.45896053314209,1614870560.71761,1614870576.19134,6.18645691871643,1614870576.19012,1614870553.01717,0.46196746826171897,1614870553.01471,0.0321760177612305,1614870553.48354,l023.png,1614870553.48155,low_cue,2.3844130039215097,74.6011802522866,FIX,1614870556.69971,1614870556.69943,1614870559.0838401,0,0,0,,,,0,0,Command Recieved: TRIGGER_AND_Response: RESULT_OK,,,1614870567.20988,1614870567.20956,high_stim,2.39073848724365,94.82076607809259,FIX,1614870582.39977,1614870582.3924599,1614870584.7832,3,1,3,low_cue,1614870889.9186,1614870889.9084802,399.12182259559603,5,1614870490.78776,high_stim,pain,1614870490.78666,1,2,39
1614870587.89584,1.28204345703125,1614870587.89453,1614870593.21753,2.16337013244629,1614870593.2132,1614870604.38502,1.1924889087677,1614870604.3840802,1614870586.41695,0.466037750244141,1614870586.41064,0.0694160461425781,1614870586.8954198,h038.png,1614870586.89415,high_cue,2.6047682762146,116.97650392107,FIX,1614870589.1959,1614870589.19502,1614870591.7997901,0,0,0,,,,0,0,Command Recieved: TRIGGER_AND_Response: RESULT_OK,,,1614870595.44781,1614870595.4469302,med_stim,2.5844571590423597,107.630080218819,FIX,1614870605.58471,1614870605.5845401,1614870608.1689901,5,1,3,high_cue,1614870889.9186,1614870889.9084802,399.12182259559603,5,1614870490.78776,med_stim,pain,1614870490.78666,1,2,40
1614870623.39231,1.68531918525696,1614870623.39125,1614870629.1114,2.66649508476257,1614870629.11008,1614870640.78402,6.195425510406491,1614870640.78115,1614870609.6172,12.773954868316698,1614870609.60272,0.044058084487915004,1614870622.3919802,l004.png,1614870622.39088,low_cue,1.49141979217529,112.19028889612301,FIX,1614870625.1003,1614870625.0919,1614870626.58332,0,0,0,,,,0,0,Command Recieved: TRIGGER_AND_Response: RESULT_OK,,,1614870631.82144,1614870631.82116,med_stim,2.38442468643188,113.985903676795,FIX,1614870647.00119,1614870646.98349,1614870649.36791,2,1,3,low_cue,1614870889.9186,1614870889.9084802,399.12182259559603,5,1614870490.78776,med_stim,pain,1614870490.78666,1,2,41
1614870655.1877902,1.28999066352844,1614870655.1865802,1614870660.5060198,9.07132005691528,1614870660.50525,1614870678.59711,0.781159639358521,1614870678.5954099,1614870651.01769,3.17500495910645,1614870651.00167,0.0812809467315674,1614870654.1872802,l012.png,1614870654.1862,low_cue,,,FIX,1614870656.48737,1614870656.4870698,,0,0,0,,,,0,0,Command Recieved: TRIGGER_AND_Response: RESULT_OK,,,1614870669.65854,1614870669.6582801,high_stim,2.6378364562988303,144.837850966033,FIX,1614870679.4003,1614870679.39571,1614870682.03355,3,1,3,low_cue,1614870889.9186,1614870889.9084802,399.12182259559603,5,1614870490.78776,high_stim,pain,1614870490.78666,1,2,42
1614870685.18467,0.5953414440155029,1614870685.18123,1614870689.81789,2.1602599620819096,1614870689.81631,1614870700.98835,17.689378738403303,1614870700.98719,1614870683.41771,0.76277494430542,1614870683.4139,0.0625739097595215,1614870684.1845698,h042.png,1614870684.18085,high_cue,2.00208926200867,151.16903168761002,FIX,1614870685.80051,1614870685.79813,1614870687.80022,0,0,0,,,,0,0,Command Recieved: TRIGGER_AND_Response: RESULT_OK,,,1614870692.04055,1614870692.0399802,high_stim,2.3732576370239302,137.145524354897,FIX,1614870718.7005901,1614870718.69388,1614870721.06713,6,1,3,high_cue,1614870889.9186,1614870889.9084802,399.12182259559603,5,1614870490.78776,high_stim,pain,1614870490.78666,1,2,43
1614870726.1846,0.5965399742126459,1614870726.18003,1614870730.81799,1.8614583015441901,1614870730.81511,1614870741.6868,1.9906909465789802,1614870741.6858802,1614870722.7299,2.4479444026947,1614870722.72873,0.0428409576416016,1614870725.19742,l020.png,1614870725.19633,low_cue,2.3702449798583998,136.938501769387,FIX,1614870726.79724,1614870726.79693,1614870729.16718,0,0,0,,,,0,0,Command Recieved: TRIGGER_AND_Response: RESULT_OK,,,1614870732.72152,1614870732.72045,low_stim,3.4515151977539102,108.28915835000299,FIX,1614870743.68694,1614870743.68664,1614870747.13815,1,1,3,low_cue,1614870889.9186,1614870889.9084802,399.12182259559603,5,1614870490.78776,low_stim,pain,1614870490.78666,1,2,44
1614870750.89049,0.88721776008606,1614870750.88936,1614870755.80897,9.06869554519653,1614870755.8078802,1614870773.88476,7.89520955085754,1614870773.88136,1614870747.71829,2.1718502044677703,1614870747.70482,0.0631778240203857,1614870749.89014,l019.png,1614870749.8889802,low_cue,2.13434863090515,111.350980247654,FIX,1614870751.79012,1614870751.7897,1614870753.92404,0,0,0,,,,0,0,Command Recieved: TRIGGER_AND_Response: RESULT_OK,,,1614870764.9413302,1614870764.9408,low_stim,2.51774144172668,95.7794858251559,FIX,1614870781.78451,1614870781.78435,1614870784.30209,1,1,3,low_cue,1614870889.9186,1614870889.9084802,399.12182259559603,5,1614870490.78776,low_stim,pain,1614870490.78666,1,2,45
1614870799.59192,2.18550729751587,1614870799.59107,1614870805.81136,1.8664932250976598,1614870805.81008,1614870816.6849198,1.6957256793975801,1614870816.68085,1614870785.81826,12.7741303443909,1614870785.80253,0.0794708728790283,1614870798.59184,h039.png,1614870798.5906901,high_cue,2.71798491477966,104.03624346792601,FIX,1614870801.7922,1614870801.7919,1614870804.50988,0,0,0,,,,0,0,Command Recieved: TRIGGER_AND_Response: RESULT_OK,,,1614870807.75684,1614870807.75654,low_stim,2.25283408164978,108.07001248719101,FIX,1614870818.3987,1614870818.39816,1614870820.651,4,1,3,high_cue,1614870889.9186,1614870889.9084802,399.12182259559603,5,1614870490.78776,low_stim,pain,1614870490.78666,1,2,46
1614870832.4881,0.88976001739502,1614870832.48681,1614870837.40641,6.67123818397522,1614870837.4053302,1614870853.09562,1.4819843769073502,1614870853.09459,1614870822.41786,9.060331106185911,1614870822.41634,0.0666790008544922,1614870831.4876099,h032.png,1614870831.4864302,high_cue,2.2177064418792702,123.244937240301,FIX,1614870833.3876,1614870833.38715,1614870835.60486,0,0,0,,,,0,0,Command Recieved: TRIGGER_AND_Response: RESULT_OK,,,1614870844.14431,1614870844.14399,med_stim,2.9558532238006605,140.370994695536,FIX,1614870854.59547,1614870854.59515,1614870857.55101,5,1,3,high_cue,1614870889.9186,1614870889.9084802,399.12182259559603,5,1614870490.78776,med_stim,pain,1614870490.78666,1,2,47
1614870863.2853599,2.29480719566345,1614870863.28177,1614870869.61877,6.45908164978027,1614870869.61749,1614870885.09149,0.7865774631500241,1614870885.09,1614870858.61859,3.6633365154266397,1614870858.6133401,0.0627632141113281,1614870862.2854302,h025.png,1614870862.28139,high_cue,2.26846790313721,137.109089737258,FIX,1614870865.59975,1614870865.59931,1614870867.86778,0,0,0,,,,0,0,Command Recieved: TRIGGER_AND_Response: RESULT_OK,,,1614870876.14085,1614870876.14043,high_stim,2.76793098449707,153.226979574691,FIX,1614870885.89078,1614870885.8903,1614870888.65823,6,1,3,high_cue,1614870889.9186,1614870889.9084802,399.12182259559603,5,1614870490.78776,high_stim,pain,1614870490.78666,1,2,48
1614868732.54349,0.99451732635498,1614868732.52772,1614868737.5806901,4.64272856712341,1614868737.57962,1614868751.24248,2.88752341270447,1614868751.2347698,1614868728.84628,2.6963727474212598,1614868728.8263302,0.065803050994873,1614868731.54621,l038.png,1614868731.54402,low_cue,,,FIX,1614868733.56183,1614868733.56144,,0,0,0,,,,0,0,Command Recieved: TRIGGER_AND_Response: RESULT_OK,,,1614868742.30551,1614868742.30498,med_stim,3.97235774993896,71.565051177078,FIX,1614868754.14147,1614868754.13587,1614868758.10823,2,2,3,low_cue,1614869124.76043,1614869124.75901,398.70966386795,1,1614868726.05316,med_stim,pain,1614868726.04935,1,2,49
1614868760.8427901,1.28384256362915,1614868760.83839,1614868766.15928,7.465170621871951,1614868766.15707,1614868782.64344,1.89229083061218,1614868782.62994,1614868758.82255,1.00164341926575,1614868758.8209698,0.0370581150054932,1614868759.84299,l048.png,1614868759.8380198,low_cue,2.55270791053772,5.5275401516561695,FIX,1614868762.1416302,1614868762.13888,1614868764.69159,0,0,0,,,,0,0,Command Recieved: TRIGGER_AND_Response: RESULT_OK,,,1614868773.66104,1614868773.66012,low_stim,3.7515809535980202,40.072890052351,FIX,1614868784.54194,1614868784.53066,1614868788.2822402,1,2,3,low_cue,1614869124.76043,1614869124.75901,398.70966386795,1,1614868726.05316,low_stim,pain,1614868726.04935,1,2,50
1614868801.24266,1.28527688980103,1614868801.23696,1614868806.57635,4.74993109703064,1614868806.5723,1614868820.34386,2.0947449207305904,1614868820.32749,1614868788.86709,11.3569242954254,1614868788.8656301,0.0566039085388184,1614868800.24319,l015.png,1614868800.2365801,low_cue,2.03759026527405,18.9432630612515,FIX,1614868802.55485,1614868802.5541198,1614868804.5917099,0,0,0,,,,0,0,Command Recieved: TRIGGER_AND_Response: RESULT_OK,,,1614868811.37999,1614868811.3794801,high_stim,2.05130314826965,107.27174257768101,FIX,1614868822.4453,1614868822.4449599,1614868824.49626,3,2,3,low_cue,1614869124.76043,1614869124.75901,398.70966386795,1,1614868726.05316,high_stim,pain,1614868726.04935,1,2,51
1614868830.84271,1.7907826900482198,1614868830.83145,1614868836.66849,2.55524873733521,1614868836.66699,1614868848.2432,5.18423986434937,1614868848.23802,1614868826.48052,3.34274196624756,1614868826.47981,0.0475280284881592,1614868829.8427699,h017.png,1614868829.83108,high_cue,2.1016628742218,103.253715626495,FIX,1614868832.64904,1614868832.64881,1614868834.75047,0,0,0,,,,0,0,Command Recieved: TRIGGER_AND_Response: RESULT_OK,,,1614868839.2711,1614868839.27046,low_stim,3.05189299583435,70.8398268780187,FIX,1614868853.44189,1614868853.43998,1614868856.49187,4,2,3,high_cue,1614869124.76043,1614869124.75901,398.70966386795,1,1614868726.05316,low_stim,pain,1614868726.04935,1,2,52
1614868865.3445,0.6944656372070309,1614868865.3278,1614868870.06431,8.95932173728943,1614868870.0629199,1614868888.0443099,5.18587517738342,1614868888.03636,1614868857.4768,6.8482346534729,1614868857.4748302,0.051353931427002,1614868864.3467,h046.png,1614868864.34409,high_cue,3.2846953868866002,81.2188372656145,FIX,1614868866.04493,1614868866.0447302,1614868869.32943,0,0,0,,,,0,0,Command Recieved: TRIGGER_AND_Response: RESULT_OK,,,1614868879.07708,1614868879.07515,med_stim,2.6537425518035898,77.6960764459401,FIX,1614868893.2423,1614868893.2383199,1614868895.8920698,5,2,3,high_cue,1614869124.76043,1614869124.75901,398.70966386795,1,1614868726.05316,med_stim,pain,1614868726.04935,1,2,53
1614868905.12742,0.796094179153442,1614868905.12614,1614868909.96215,2.56093835830688,1614868909.9613,1614868921.54304,5.18990564346313,1614868921.53233,1614868897.2929099,6.83248662948608,1614868897.28985,0.0566089153289795,1614868904.12671,h052.png,1614868904.12576,high_cue,2.43437433242798,97.15356431839442,FIX,1614868905.9433599,1614868905.94312,1614868908.37749,0,0,0,,,,0,0,Command Recieved: TRIGGER_AND_Response: RESULT_OK,,,1614868912.58037,1614868912.5798,high_stim,3.70793390274048,114.579314115696,FIX,1614868926.74255,1614868926.7342901,1614868930.44223,6,2,3,high_cue,1614869124.76043,1614869124.75901,398.70966386795,1,1614868726.05316,high_stim,pain,1614868726.04935,1,2,54
1614868933.7379801,1.9853019714355502,1614868933.7369401,1614868939.75976,3.5663640499115004,1614868939.7558699,1614868952.34364,9.49495601654053,1614868952.32728,1614868931.00968,1.71976780891418,1614868931.00257,0.0604000091552734,1614868932.74338,h042.png,1614868932.7365599,high_cue,2.7711992263793905,117.081215406843,FIX,1614868935.74262,1614868935.73769,1614868938.5088902,0,0,0,,,,0,0,Command Recieved: TRIGGER_AND_Response: RESULT_OK,,,1614868943.3838902,1614868943.38335,low_stim,1.93424201011658,76.5756299449677,FIX,1614868961.84284,1614868961.83087,1614868963.76511,4,2,3,high_cue,1614869124.76043,1614869124.75901,398.70966386795,1,1614868726.05316,low_stim,pain,1614868726.04935,1,2,55
1614868969.03451,1.68865132331848,1614868969.03358,1614868974.75366,2.8698275089263903,1614868974.75241,1614868986.64355,0.982008457183838,1614868986.6402302,1614868965.86014,2.17342209815979,1614868965.84905,0.057887077331542997,1614868968.04339,l014.png,1614868968.03321,low_cue,2.10826301574707,75.6299984848207,FIX,1614868970.74281,1614868970.73423,1614868972.84249,0,0,0,,,,0,0,Command Recieved: TRIGGER_AND_Response: RESULT_OK,,,1614868977.68082,1614868977.6805801,high_stim,2.1518030166626,84.93057986738751,FIX,1614868987.64276,1614868987.6406,1614868989.79241,3,2,3,low_cue,1614869124.76043,1614869124.75901,398.70966386795,1,1614868726.05316,high_stim,pain,1614868726.04935,1,2,56
1614868997.82885,1.9944555759429898,1614868997.82778,1614869003.86448,1.85884308815002,1614869003.86339,1614869014.74354,11.788075685501099,1614869014.73416,1614868991.6594,5.16356706619263,1614868991.65879,0.0524270534515381,1614868996.8433301,h014.png,1614868996.8274,high_cue,2.0175940990448002,101.58061918222799,FIX,1614868999.84601,1614868999.84521,1614869001.8628,0,0,0,,,,0,0,Command Recieved: TRIGGER_AND_Response: RESULT_OK,,,1614869005.77613,1614869005.7755802,high_stim,3.72070217132568,105.094062825037,FIX,1614869026.5428698,1614869026.53861,1614869030.25932,6,2,3,high_cue,1614869124.76043,1614869124.75901,398.70966386795,1,1614868726.05316,high_stim,pain,1614868726.04935,1,2,57
1614869033.54299,1.2809796333313,1614869033.54126,1614869038.86068,3.56230592727661,1614869038.85993,1614869051.44382,1.89089560508728,1614869051.43134,1614869030.82658,1.6987671852111799,1614869030.82356,0.0606889724731445,1614869032.54375,l053.png,1614869032.54088,low_cue,,,FIX,1614869034.84265,1614869034.84175,,0,0,0,,,,0,0,Command Recieved: TRIGGER_AND_Response: RESULT_OK,,,1614869042.48444,1614869042.4838,med_stim,2.47744917869568,71.565051177078,FIX,1614869053.34284,1614869053.3320599,1614869055.80951,2,2,3,low_cue,1614869124.76043,1614869124.75901,398.70966386795,1,1614868726.05316,med_stim,pain,1614868726.04935,1,2,58
1614869060.53604,1.98746061325073,1614869060.53478,1614869066.55495,6.268521308898929,1614869066.55371,1614869081.82716,5.396092176437381,1614869081.82614,1614869057.36829,2.1554193496704097,1614869057.36691,0.0318498611450195,1614869059.53592,h033.png,1614869059.5344,high_cue,1.59066104888916,105.08635400846501,FIX,1614869062.5428,1614869062.53553,1614869064.12619,0,0,0,,,,0,0,Command Recieved: TRIGGER_AND_Response: RESULT_OK,,,1614869072.85526,1614869072.8547301,med_stim,3.06810021400452,96.91838640669371,FIX,1614869087.2451801,1614869087.24486,1614869090.31296,5,2,3,high_cue,1614869124.76043,1614869124.75901,398.70966386795,1,1614868726.05316,med_stim,pain,1614868726.04935,1,2,59
1614869099.13383,1.9895601272583001,1614869099.1326802,1614869105.15261,4.57062220573425,1614869105.15161,1614869118.7411098,1.98215961456299,1614869118.74008,1614869091.28076,6.84262728691101,1614869091.27971,0.033167839050293,1614869098.13335,l025.png,1614869098.1323,low_cue,1.9096040725708001,87.921629754638,FIX,1614869101.14304,1614869101.13343,1614869103.04304,0,0,0,,,,0,0,Command Recieved: TRIGGER_AND_Response: RESULT_OK,,,1614869109.75649,1614869109.75603,low_stim,2.1690497398376496,81.44645729742821,FIX,1614869120.74316,1614869120.7408302,1614869122.9098802,1,2,3,low_cue,1614869124.76043,1614869124.75901,398.70966386795,1,1614868726.05316,low_stim,pain,1614868726.04935,1,2,60
