onset	duration	trial_type	trial_index	cue	stimulusintensity	rating_value	rating_glmslabel	rating_value_fillna	rating_glmslabel_fillna	rating_mouseonset	rating_mousedur	stim_file
4.1	0.99	cue	1	high_cue	n/a	n/a	n/a	n/a	n/a	n/a	n/a	h012.png
33.51	0.98	cue	2	low_cue	n/a	n/a	n/a	n/a	n/a	n/a	n/a	l043.png
71.61	0.98	cue	3	high_cue	n/a	n/a	n/a	n/a	n/a	n/a	n/a	h017.png
105.6	0.99	cue	4	high_cue	n/a	n/a	n/a	n/a	n/a	n/a	n/a	h033.png
132.81	0.98	cue	5	high_cue	n/a	n/a	n/a	n/a	n/a	n/a	n/a	h026.png
163.31	0.98	cue	6	high_cue	n/a	n/a	n/a	n/a	n/a	n/a	n/a	h021.png
196.9	0.99	cue	7	low_cue	n/a	n/a	n/a	n/a	n/a	n/a	n/a	l008.png
231.4	0.99	cue	8	low_cue	n/a	n/a	n/a	n/a	n/a	n/a	n/a	l025.png
270.4	0.99	cue	9	high_cue	n/a	n/a	n/a	n/a	n/a	n/a	n/a	h007.png
297.71	0.98	cue	10	low_cue	n/a	n/a	n/a	n/a	n/a	n/a	n/a	l024.png
327.2	0.99	cue	11	low_cue	n/a	n/a	n/a	n/a	n/a	n/a	n/a	l041.png
372.6	0.99	cue	12	low_cue	n/a	n/a	n/a	n/a	n/a	n/a	n/a	l030.png
7.22	3.67	expectrating	1	high_cue	n/a	20.61	Moderate	20.61	Moderate	0.05	3.62	h012.png
36.61	3.67	expectrating	2	low_cue	n/a	17.78	Moderate	17.78	Moderate	0.05	3.62	l043.png
73.61	3.88	expectrating	3	high_cue	n/a	11.67	Moderate	11.67	Moderate	1.72	2.17	h017.png
108.7	2.55	expectrating	4	high_cue	n/a	7.64	Weak	7.64	Weak	0.72	1.83	h033.png
135.92	3.97	expectrating	5	high_cue	n/a	11.26	Moderate	11.26	Moderate	0.85	3.12	h026.png
165.31	3.3	expectrating	6	high_cue	n/a	9.5	Weak	9.5	Weak	0.05	3.25	h021.png
199.31	1.85	expectrating	7	low_cue	n/a	4.18	Weak	4.18	Weak	1.05	0.8	l008.png
234.3	1.99	expectrating	8	low_cue	n/a	6.01	Weak	6.01	Weak	0.98	1.0	l025.png
272.2	1.67	expectrating	9	high_cue	n/a	2.99	Barely detectable	2.99	Barely detectable	0.05	1.62	h007.png
300.21	1.82	expectrating	10	low_cue	n/a	11.85	Moderate	11.85	Moderate	1.05	0.77	l024.png
329.1	3.49	expectrating	11	low_cue	n/a	6.03	Weak	6.03	Weak	0.05	3.44	l041.png
374.6	2.85	expectrating	12	low_cue	n/a	3.91	Weak	3.91	Weak	0.92	1.94	l030.png
14.49	7.01	stimulus	1	high_cue	med_stim	n/a	n/a	n/a	n/a	n/a	n/a	jy115t1aeaff_M.mp4
49.49	7.01	stimulus	2	low_cue	low_stim	n/a	n/a	n/a	n/a	n/a	n/a	jy115t1aaunaff_L.mp4
86.49	7.01	stimulus	3	high_cue	low_stim	n/a	n/a	n/a	n/a	n/a	n/a	dr052t1aeunaff_L.mp4
119.89	7.0	stimulus	4	high_cue	high_stim	n/a	n/a	n/a	n/a	n/a	n/a	jh123t1aeaff_H.mp4
143.2	7.01	stimulus	5	high_cue	low_stim	n/a	n/a	n/a	n/a	n/a	n/a	mg066t2aeunaff_L.mp4
176.49	7.01	stimulus	6	high_cue	med_stim	n/a	n/a	n/a	n/a	n/a	n/a	tv095t2afaff_M.mp4
207.89	7.0	stimulus	7	low_cue	high_stim	n/a	n/a	n/a	n/a	n/a	n/a	dr052t1aiaff_H.mp4
242.89	7.01	stimulus	8	low_cue	med_stim	n/a	n/a	n/a	n/a	n/a	n/a	aa048t2afunaff_M.mp4
280.79	7.01	stimulus	9	high_cue	high_stim	n/a	n/a	n/a	n/a	n/a	n/a	jy115t2aaaff_H.mp4
308.29	7.01	stimulus	10	low_cue	med_stim	n/a	n/a	n/a	n/a	n/a	n/a	mg066t2aaunaff_M.mp4
346.59	7.0	stimulus	11	low_cue	low_stim	n/a	n/a	n/a	n/a	n/a	n/a	th108t1aaunaff_L.mp4
386.39	7.0	stimulus	12	low_cue	high_stim	n/a	n/a	n/a	n/a	n/a	n/a	th108t1aeaff_H.mp4
23.71	2.72	outcomerating	1	high_cue	med_stim	38.3	Strong	38.3	Strong	0.5	2.22	task-vicarious_scale.png
62.4	2.0	outcomerating	2	low_cue	low_stim	0.0		0.0		0.28	1.72	task-vicarious_scale.png
97.12		outcomerating	3	high_cue	low_stim			6.93	Weak	0.58	2.75	task-vicarious_scale.png
127.51		outcomerating	4	high_cue	high_stim			16.98	Moderate	0.87	2.95	task-vicarious_scale.png
152.42	3.17	outcomerating	5	high_cue	low_stim	5.07	Weak	5.07	Weak	0.05	3.12	task-vicarious_scale.png
184.52	2.51	outcomerating	6	high_cue	med_stim	18.29	Moderate	18.29	Moderate	0.07	2.44	task-vicarious_scale.png
224.41		outcomerating	7	low_cue	high_stim			25.02	Moderate	0.1	3.73	task-vicarious_scale.png
257.01	1.77	outcomerating	8	low_cue	med_stim	0.0		0.0		0.07	1.7	task-vicarious_scale.png
292.41	3.52	outcomerating	9	high_cue	high_stim	11.36	Moderate	11.36	Moderate	0.35	3.17	task-vicarious_scale.png
318.02	2.96	outcomerating	10	low_cue	med_stim	5.07	Weak	5.07	Weak	0.75	2.21	task-vicarious_scale.png
367.02	2.54	outcomerating	11	low_cue	low_stim	3.45	Weak	3.45	Weak	0.05	2.49	task-vicarious_scale.png
394.41		outcomerating	12	low_cue	high_stim			36.69	Strong	0.95	2.13	task-vicarious_scale.png
