onset	duration	trial_type	trial_index	cue	stimulusintensity	rating_value	rating_glmslabel	rating_value_fillna	rating_glmslabel_fillna	rating_mouseonset	rating_mousedur	stim_file
5.68	0.99	cue	1	high_cue	n/a	n/a	n/a	n/a	n/a	n/a	n/a	h009.png
28.99	0.98	cue	2	low_cue	n/a	n/a	n/a	n/a	n/a	n/a	n/a	l054.png
59.78	0.99	cue	3	low_cue	n/a	n/a	n/a	n/a	n/a	n/a	n/a	l017.png
94.88	0.99	cue	4	high_cue	n/a	n/a	n/a	n/a	n/a	n/a	n/a	h056.png
119.99	0.98	cue	5	low_cue	n/a	n/a	n/a	n/a	n/a	n/a	n/a	l014.png
162.39	0.98	cue	6	high_cue	n/a	n/a	n/a	n/a	n/a	n/a	n/a	h049.png
215.39	0.98	cue	7	low_cue	n/a	n/a	n/a	n/a	n/a	n/a	n/a	l021.png
251.69	0.98	cue	8	high_cue	n/a	n/a	n/a	n/a	n/a	n/a	n/a	h054.png
279.98	0.99	cue	9	high_cue	n/a	n/a	n/a	n/a	n/a	n/a	n/a	h043.png
308.39	0.98	cue	10	low_cue	n/a	n/a	n/a	n/a	n/a	n/a	n/a	l044.png
341.09	0.98	cue	11	high_cue	n/a	n/a	n/a	n/a	n/a	n/a	n/a	h015.png
374.28	0.99	cue	12	low_cue	n/a	n/a	n/a	n/a	n/a	n/a	n/a	l031.png
8.3	2.83	expectrating	1	high_cue	n/a	45.34	Strong	45.34	Strong	0.77	2.07	h009.png
31.99	2.74	expectrating	2	low_cue	n/a	48.75	Strong	48.75	Strong	1.17	1.57	l054.png
62.18	2.81	expectrating	3	low_cue	n/a	34.48	Strong	34.48	Strong	0.62	2.19	l017.png
97.3	3.32	expectrating	4	high_cue	n/a	34.71	Strong	34.71	Strong	0.85	2.47	h056.png
122.99		expectrating	5	low_cue	n/a			38.95	Strong	0.92	3.53	l014.png
165.39	2.24	expectrating	6	high_cue	n/a	22.32	Moderate	22.32	Moderate	0.77	1.47	h049.png
217.59	2.3	expectrating	7	low_cue	n/a	31.61	Strong	31.61	Strong	1.1	1.2	l021.png
254.29	2.59	expectrating	8	high_cue	n/a	17.49	Moderate	17.49	Moderate	0.47	2.12	h054.png
281.88	3.88	expectrating	9	high_cue	n/a	13.98	Moderate	13.98	Moderate	1.82	2.07	h043.png
311.39	3.67	expectrating	10	low_cue	n/a	15.3	Moderate	15.3	Moderate	0.8	2.87	l044.png
342.99		expectrating	11	high_cue	n/a			28.83	Moderate	2.33	3.6	h015.png
376.18		expectrating	12	low_cue	n/a			15.69	Moderate	0.48	3.82	l031.png
14.88	7.01	stimulus	1	high_cue	high_stim	n/a	n/a	n/a	n/a	n/a	n/a	ll042t1aiaff_H.mp4
43.87	7.0	stimulus	2	low_cue	high_stim	n/a	n/a	n/a	n/a	n/a	n/a	jk103t1aaaff_H.mp4
69.17	7.01	stimulus	3	low_cue	high_stim	n/a	n/a	n/a	n/a	n/a	n/a	jh123t1aeaff_H.mp4
104.47	7.01	stimulus	4	high_cue	high_stim	n/a	n/a	n/a	n/a	n/a	n/a	jl047t1aiaff_H.mp4
140.17	7.01	stimulus	5	low_cue	low_stim	n/a	n/a	n/a	n/a	n/a	n/a	nm106t1aaunaff_L.mp4
191.07	7.01	stimulus	6	high_cue	low_stim	n/a	n/a	n/a	n/a	n/a	n/a	jh123t1aaunaff_L.mp4
226.97	7.01	stimulus	7	low_cue	med_stim	n/a	n/a	n/a	n/a	n/a	n/a	nm106t2aaunaff_M.mp4
260.87	7.0	stimulus	8	high_cue	med_stim	n/a	n/a	n/a	n/a	n/a	n/a	jh123t2aaaff_M.mp4
289.87	7.01	stimulus	9	high_cue	med_stim	n/a	n/a	n/a	n/a	n/a	n/a	jl047t1aiunaff_M.mp4
318.97	7.01	stimulus	10	low_cue	med_stim	n/a	n/a	n/a	n/a	n/a	n/a	jk103t2aaunaff_M.mp4
354.87	7.0	stimulus	11	high_cue	low_stim	n/a	n/a	n/a	n/a	n/a	n/a	jk103t1aaunaff_L.mp4
382.97	7.01	stimulus	12	low_cue	low_stim	n/a	n/a	n/a	n/a	n/a	n/a	bg096t2afunaff_L.mp4
23.9	3.74	outcomerating	1	high_cue	high_stim	57.67	Strong	57.67	Strong	0.1	3.64	task-vicarious_scale.png
55.2	2.03	outcomerating	2	low_cue	high_stim	62.51	Strong	62.51	Strong	0.48	1.55	task-vicarious_scale.png
81.69	2.08	outcomerating	3	low_cue	high_stim	39.13	Strong	39.13	Strong	0.48	1.6	task-vicarious_scale.png
115.39	2.3	outcomerating	4	high_cue	high_stim	52.53	Strong	52.53	Strong	0.15	2.15	task-vicarious_scale.png
151.5	3.97	outcomerating	5	low_cue	low_stim	21.71	Moderate	21.71	Moderate	2.68	1.29	task-vicarious_scale.png
207.79	2.34	outcomerating	6	high_cue	low_stim	8.75	Weak	8.75	Weak	1.02	1.32	task-vicarious_scale.png
240.6	2.98	outcomerating	7	low_cue	med_stim	8.36	Weak	8.36	Weak	0.53	2.45	task-vicarious_scale.png
270.09	2.63	outcomerating	8	high_cue	med_stim	13.42	Moderate	13.42	Moderate	0.18	2.45	task-vicarious_scale.png
299.29		outcomerating	9	high_cue	med_stim			7.7	Weak	1.12	2.47	task-vicarious_scale.png
331.5	3.17	outcomerating	10	low_cue	med_stim	16.83	Moderate	16.83	Moderate	0.85	2.32	task-vicarious_scale.png
364.7	1.73	outcomerating	11	high_cue	low_stim	4.45	Weak	4.45	Weak	0.45	1.28	task-vicarious_scale.png
394.99	2.75	outcomerating	12	low_cue	low_stim	34.99	Strong	34.99	Strong	1.52	1.23	task-vicarious_scale.png
