onset	duration	trial_type	trial_index	cue	stimulusintensity	rating_value	rating_glmslabel	rating_value_fillna	rating_glmslabel_fillna	rating_mouseonset	rating_mousedur	stim_file	correct_response	participant_response	response_accuracy
11.31	0.99	cue	1	high_cue	n/a	n/a	n/a	n/a	n/a	n/a	n/a	h035.png	n/a	n/a	n/a
44.3	0.99	cue	2	low_cue	n/a	n/a	n/a	n/a	n/a	n/a	n/a	l047.png	n/a	n/a	n/a
80.7	0.99	cue	3	high_cue	n/a	n/a	n/a	n/a	n/a	n/a	n/a	h010.png	n/a	n/a	n/a
105.61	0.98	cue	4	low_cue	n/a	n/a	n/a	n/a	n/a	n/a	n/a	l022.png	n/a	n/a	n/a
133.8	0.99	cue	5	high_cue	n/a	n/a	n/a	n/a	n/a	n/a	n/a	h049.png	n/a	n/a	n/a
169.5	0.99	cue	6	high_cue	n/a	n/a	n/a	n/a	n/a	n/a	n/a	h034.png	n/a	n/a	n/a
204.4	1.0	cue	7	low_cue	n/a	n/a	n/a	n/a	n/a	n/a	n/a	l030.png	n/a	n/a	n/a
234.31	0.98	cue	8	high_cue	n/a	n/a	n/a	n/a	n/a	n/a	n/a	h045.png	n/a	n/a	n/a
266.7	0.99	cue	9	low_cue	n/a	n/a	n/a	n/a	n/a	n/a	n/a	l002.png	n/a	n/a	n/a
294.8	1.0	cue	10	high_cue	n/a	n/a	n/a	n/a	n/a	n/a	n/a	h008.png	n/a	n/a	n/a
327.11	0.98	cue	11	low_cue	n/a	n/a	n/a	n/a	n/a	n/a	n/a	l027.png	n/a	n/a	n/a
366.51	0.99	cue	12	low_cue	n/a	n/a	n/a	n/a	n/a	n/a	n/a	l014.png	n/a	n/a	n/a
14.22	2.1	expectrating	1	high_cue	n/a	59.68	Strong	59.68	Strong	0.53	1.57	h035.png	n/a	n/a	n/a
47.2	1.35	expectrating	2	low_cue	n/a	5.89	Weak	5.89	Weak	0.43	0.92	l047.png	n/a	n/a	n/a
83.7	1.52	expectrating	3	high_cue	n/a	14.93	Moderate	14.93	Moderate	0.47	1.06	h010.png	n/a	n/a	n/a
107.41	1.63	expectrating	4	low_cue	n/a	12.79	Moderate	12.79	Moderate	0.67	0.97	l022.png	n/a	n/a	n/a
135.6	1.75	expectrating	5	high_cue	n/a	22.96	Moderate	22.96	Moderate	0.83	0.92	h049.png	n/a	n/a	n/a
172.4	1.49	expectrating	6	high_cue	n/a	29.38	Strong	29.38	Strong	0.12	1.37	h034.png	n/a	n/a	n/a
207.31	1.45	expectrating	7	low_cue	n/a	0.0		0.0		0.05	1.4	l030.png	n/a	n/a	n/a
236.21	2.02	expectrating	8	high_cue	n/a	26.36	Moderate	26.36	Moderate	0.62	1.4	h045.png	n/a	n/a	n/a
268.5	1.55	expectrating	9	low_cue	n/a	8.13	Weak	8.13	Weak	0.45	1.1	l002.png	n/a	n/a	n/a
297.31	2.0	expectrating	10	high_cue	n/a	41.92	Strong	41.92	Strong	0.67	1.33	h008.png	n/a	n/a	n/a
330.01	1.58	expectrating	11	low_cue	n/a	0.49	No sensation	0.49	No sensation	0.48	1.1	l027.png	n/a	n/a	n/a
369.41	1.25	expectrating	12	low_cue	n/a	1.39	Barely detectable	1.39	Barely detectable	0.53	0.72	l014.png	n/a	n/a	n/a
21.31	7.0	stimulus	1	high_cue	high_stim	n/a	n/a	n/a	n/a	n/a	n/a	14_150.jpg	same	same	True
61.41	7.0	stimulus	2	low_cue	high_stim	n/a	n/a	n/a	n/a	n/a	n/a	14_150_R.jpg	diff	same	False
92.0	7.0	stimulus	3	high_cue	high_stim	n/a	n/a	n/a	n/a	n/a	n/a	35_150_R.jpg	diff	diff	True
114.51	6.99	stimulus	4	low_cue	med_stim	n/a	n/a	n/a	n/a	n/a	n/a	26_100_R.jpg	diff	diff	True
147.91	7.0	stimulus	5	high_cue	low_stim	n/a	n/a	n/a	n/a	n/a	n/a	28_50.jpg	same	same	True
186.91	7.0	stimulus	6	high_cue	med_stim	n/a	n/a	n/a	n/a	n/a	n/a	22_100.jpg	same	same	True
218.4	7.0	stimulus	7	low_cue	high_stim	n/a	n/a	n/a	n/a	n/a	n/a	7_150.jpg	same	same	True
244.91	6.99	stimulus	8	high_cue	low_stim	n/a	n/a	n/a	n/a	n/a	n/a	22_50.jpg	same	same	True
280.81	7.0	stimulus	9	low_cue	low_stim	n/a	n/a	n/a	n/a	n/a	n/a	44_50.jpg	same	same	True
307.9	7.0	stimulus	10	high_cue	med_stim	n/a	n/a	n/a	n/a	n/a	n/a	7_100_R.jpg	diff	diff	True
342.9	7.0	stimulus	11	low_cue	med_stim	n/a	n/a	n/a	n/a	n/a	n/a	19_100.jpg	same	same	True
376.21	6.99	stimulus	12	low_cue	low_stim	n/a	n/a	n/a	n/a	n/a	n/a	28_50_R.jpg	diff	diff	True
32.72	1.85	outcomerating	1	high_cue	high_stim	11.17	Moderate	11.17	Moderate	0.42	1.43	task-cognitive_scale.png	n/a	n/a	n/a
70.71	2.1	outcomerating	2	low_cue	high_stim	27.92	Moderate	27.92	Moderate	1.03	1.07	task-cognitive_scale.png	n/a	n/a	n/a
100.61	2.17	outcomerating	3	high_cue	high_stim	18.05	Moderate	18.05	Moderate	1.02	1.15	task-cognitive_scale.png	n/a	n/a	n/a
126.12	1.87	outcomerating	4	low_cue	med_stim	15.32	Moderate	15.32	Moderate	0.6	1.27	task-cognitive_scale.png	n/a	n/a	n/a
159.51	1.83	outcomerating	5	high_cue	low_stim	3.22	Weak	3.22	Weak	0.67	1.17	task-cognitive_scale.png	n/a	n/a	n/a
196.71	1.77	outcomerating	6	high_cue	med_stim	9.42	Weak	9.42	Weak	0.38	1.38	task-cognitive_scale.png	n/a	n/a	n/a
228.4	2.08	outcomerating	7	low_cue	high_stim	8.36	Weak	8.36	Weak	0.55	1.53	task-cognitive_scale.png	n/a	n/a	n/a
255.72	3.82	outcomerating	8	high_cue	low_stim	1.85	Barely detectable	1.85	Barely detectable	0.73	3.08	task-cognitive_scale.png	n/a	n/a	n/a
289.01	2.18	outcomerating	9	low_cue	low_stim	5.05	Weak	5.05	Weak	0.87	1.32	task-cognitive_scale.png	n/a	n/a	n/a
317.2	2.43	outcomerating	10	high_cue	med_stim	9.24	Weak	9.24	Weak	0.45	1.98	task-cognitive_scale.png	n/a	n/a	n/a
361.5	2.05	outcomerating	11	low_cue	med_stim	10.35	Moderate	10.35	Moderate	0.45	1.6	task-cognitive_scale.png	n/a	n/a	n/a
394.8	3.16	outcomerating	12	low_cue	low_stim	4.63	Weak	4.63	Weak	0.48	2.67	task-cognitive_scale.png	n/a	n/a	n/a
